Time,Acc_X,Acc_Y,Acc_Z,Gyro_X,Gyro_Y,Gyro_Z,GRF_V,GRF_AP,GRF_ML
19.21106728151564,-0.7653826512258555,-0.6737185551974331,-9.20056055419625,0.026817665316500233,0.12718132163977297,-0.27354304654394185,819.2339608453769,-54.59838763556455,-52.93617089701786
57.32318462136786,-0.16612913011925518,0.7916034126653609,-9.141939604946074,-0.007593989995347563,-0.24445958126761894,-0.18928856739099884,768.4196080656975,-13.254122142694193,57.022964679893796
24.551363964664706,-0.7431706783147441,-0.547054147077304,-9.188404426994618,-0.003807178257547104,0.19427812804353475,0.2462244230699343,806.3659788166945,-62.18053905396747,-39.508228559055254
121.31673981887883,-0.18864658090353212,0.7586398867972026,-9.125620818765357,0.03135054019677152,-0.2674639249925486,-0.20681594214348722,784.886541219208,-14.112511478195364,56.48264731630485
166.12922940163344,0.48148660005925115,-0.6440435016981039,-9.17673052431701,-0.030712640384277613,0.28195103900191354,-0.013503651720833853,855.8187948324646,32.70256889416692,-47.65275315910506
71.3639646647036,0.41278671083453966,0.7763140249120902,-9.238244164958175,0.0232608569949091,-0.30987731231494064,-0.03199012027359332,810.2568790299176,30.110771825007575,56.68374063165685
25.251402855714208,-0.8141784017821649,0.027720720415912205,-9.164814520317535,0.01765635520768304,-0.007865301036786513,-0.31558106360632665,742.0296827926886,-65.51310948021091,2.389599394773906
159.31885104728042,-0.2158695727023401,0.67633136435696,-9.166599781439514,-0.010216150557702447,-0.23901737164055847,-0.19371373171139603,764.2642459533766,-13.129662153969296,54.00100539184673
16.84093560753375,-0.12364625629639531,-0.8890441067820178,-9.193587388874807,-0.017084198337375015,-0.2720590502257957,-0.12001896106718667,755.9060692742866,-13.91825276965967,-65.73709979785748
143.8079893327407,0.4560770129894189,-0.7026850277905426,-9.13293496199445,-0.0327620364185828,-0.2004137644103133,-0.22955103984146707,816.0940622912314,34.37214606708729,-51.96706370496183
83.03461303405744,0.5632226001366751,0.7017562206637419,-9.220592749220668,0.0026603235294401307,0.11245972455179244,0.29918677822390105,829.397867525495,38.82716478264827,52.209740285592446
111.92621812322908,-0.7858607982861782,0.12238966425845794,-9.228798383517585,-0.013160204455604566,-0.23996486393724092,0.17420694583574037,736.0445688354087,-59.497190579812916,8.643280552119057
75.8842157897661,-0.6554233823757034,-0.39308434582191515,-9.193349113534131,0.011764898704921143,-0.28389426683758745,0.057380837021202086,823.4005969347605,-45.766059152379725,-30.958351260764566
110.81615645313629,0.2945654637067436,-0.7233478004554998,-9.17540102159068,-0.038290662797299105,-0.2210961384336192,-0.2004370840794925,782.1424079112397,22.74603349313887,-57.157361705231935
23.931329518306573,-1.0179810821400448,0.29366384356082675,-9.211283695450694,0.00321175704453313,-0.23113636129993675,0.18148099000384907,810.4389422097453,-75.45612860568227,22.40774820095164
73.16406467025946,-0.015747040222864484,-0.8609037879198121,-9.213760553184049,-0.010981683229160887,0.2838253471252564,-0.14293982018266274,776.3285672887093,1.450927357936125,-64.4968352200213
178.42991277293183,0.6176310284867473,-0.22460549044244066,-9.230682303937423,-0.018227721203969247,-0.22281376361807556,0.18218259165948603,775.765711163468,46.09632669502174,-17.013805166064596
68.12378465470304,0.4281005053601404,-0.6018760770775368,-9.156053510934914,-0.009722359107686766,0.29072421602791976,-0.007553732921324729,805.0602893770272,31.347502949479633,-44.82729350132669
52.25290293905217,-0.8001232252228224,-0.01400538219418851,-9.159368009383126,0.033395434334743276,-0.024013244333313675,-0.2979904793094649,754.4943986020843,-60.35871142849645,-1.576690599444143
126.15700872270682,0.20846323130916317,-0.7546828353608065,-9.130113651961029,-0.00016125194795070676,0.25999051168271164,-0.10624349205060872,769.8498440652925,15.862530942284732,-60.736557823627216
105.10583921328963,0.6400449614689201,-0.32413295597389025,-9.15337851582001,-0.02410096109345774,0.29052877521813913,0.0995065351966313,807.8365648654916,48.953189046667724,-26.351284325273603
77.44430246124784,0.790939766787054,-0.3857914138075287,-9.206485987283061,0.019887159622600768,-0.2000902685902492,0.21036137143032735,797.2835769766069,60.55152967729535,-27.978841772396375
64.05355853102951,0.7373644795260953,0.5436080271296868,-9.140561066537122,-0.01632880782658001,0.16025502796761001,0.2144265802644981,820.369226530567,55.00676502664328,41.37000074107356
26.131451747319296,0.5885652680205941,-0.7694665214811132,-9.200742137290362,-0.03188549946549919,0.2646254166338485,-0.004611260191834718,823.8840104551671,44.72244087186519,-58.560317583992784
79.12439579976666,0.6282597597373409,-0.5959842138156878,-9.182788562766872,0.018577720312991222,0.31726815939950925,0.03368054060489984,794.2223343292204,45.560382574778245,-45.55929965195573
154.9886104783599,-0.06947392824936359,0.6787492772135351,-9.143207903693577,-0.024993091575799438,-0.041982120721879415,0.2931586866563111,780.7571813048663,-3.2352134385774414,51.56281214269445
117.0165009167176,0.2213059807634165,0.7478822132332987,-9.089378359408762,0.02933067773508462,0.04250279975124716,0.3248952657985236,782.6749635260138,23.631701369093452,52.71389821636448
105.79587754875271,0.44418708141205654,-0.5272569484821347,-9.182576190725355,0.027278481011461655,-0.18657813214664348,-0.2702531705065134,808.2666174933834,29.751715603171384,-40.74503674509004
119.31662870159454,-0.18781905703492086,0.7453152740806435,-9.193430349935127,0.010074513546800558,-0.21686089239927636,-0.19013381001022703,793.8160552407143,-11.196502951291802,57.04322006092987
37.81210067225957,0.21113005081317235,-0.8353552729960821,-9.18571801295632,0.020822806458371753,-0.22338794322590758,-0.2153192529255221,769.4160321723584,16.747789114006775,-64.6733112871906
138.41768987165955,0.8237948530761682,-0.05410205086808639,-9.191109729960994,-0.024416865648580283,-0.2474644216444065,0.14517656557301595,729.6546990042652,61.304394915127645,-5.5242466705299575
172.99961108950498,-0.02371011599404746,0.666136811840554,-9.146507239336326,0.02464590883906036,-0.0021247507183426917,0.3091816298842185,723.6934443848239,-5.027266035947641,47.952974608970344
155.33862992388467,0.11576070661645242,0.6712525881220986,-9.139706679571182,0.0418715882179375,-0.24851238803808004,-0.1399471505636577,770.1451929005217,10.428149373163977,49.28545226283887
15.750875048613812,0.8788488793592201,0.02986986879589732,-9.14630963704087,0.03914104832061274,-0.009165166944028308,-0.2708786626754648,728.5162091363381,63.22735216835722,3.785902282794715
72.45402522362353,0.5312146207232047,-0.5234244551599271,-9.201254252339595,-0.03285625127774342,-0.16018593110419993,0.26494257047871445,819.024358176322,45.61115506936605,-38.86268770610253
139.34774154119674,0.08928132478845034,0.6442498437389296,-9.111182873930103,0.018930798821342295,-0.27446245583282386,-0.10067069614183703,785.8638639378964,8.48109760528155,46.56746010358415
15.830879493305185,0.0280511708392588,-0.8607253702694965,-9.159868511360711,0.08003083218972007,-0.28615730074652557,-0.16286600434972667,769.3424668395243,5.418312920164833,-65.81624414174277
15.200844491360632,-0.468874853413579,-0.7109828287207293,-9.190533871881733,0.02859007761522841,0.17997114765583386,-0.23676047768774505,805.2137116788851,-37.82402328262731,-53.05333935016733
170.4494694149675,0.5139562936195556,-0.48997661658197483,-9.182934958161894,-0.03651922717884924,-0.1555940528307095,0.2601903822929097,821.6292845006283,43.919606641344586,-38.02293753865901
16.170898383243514,-0.0171004447263918,-0.8713612993714097,-9.21453560357643,0.02319526790553883,0.24623030268280255,-0.1820408739307503,741.1928169797627,0.22507770174114516,-65.04652083901422
99.54553030723929,-0.607266083521437,-0.4822927816087664,-9.139734027519143,0.026188857280408217,0.14729841649166206,0.2374499966049648,808.2446810708509,-48.772082436801625,-34.40169643878482
4.910272792932941,-0.9138054261061196,-0.16170132319294397,-9.153655719767068,-0.014037226526307546,-0.2555864330504676,0.12003510266125451,777.1820344738419,-69.5804102125034,-12.571738484660921
113.6163120173343,-0.5824441509573882,0.48818124512463623,-9.17718691563566,-0.000675096103833657,0.29395459355760417,0.028183017165077918,825.2614403922612,-40.598457287689996,36.65008401149422
88.62492360686706,-0.6344846610905166,0.5818116186439561,-9.174305383440664,0.05185935221860715,0.2832986348745258,0.0030205643055426063,827.8258465370425,-46.711182891436714,43.71656382595359
100.4355797544308,0.7537236256077378,-0.32535076761172516,-9.144280134211389,0.014505803506770812,-0.22126973298869448,0.20551458223021904,804.5631677742584,55.72546244397433,-23.153695300102015
81.80454469692761,0.4070415068099797,-0.6422958792602959,-9.198846501113739,-0.03709106721810458,-0.1780457385894914,-0.24906196237309922,824.2704744671864,33.080040670477395,-48.15000999215374
77.13428523806878,0.4753530589449257,-0.6868414375312872,-9.150197001364692,0.041833564915596866,0.2798411597833679,-0.0335657202199232,836.05520943027,36.0212688380073,-56.58827024279328
159.8288793821879,0.0011303818101412442,-0.7275847822529107,-9.19462488543182,-0.003004094306234298,-0.2599116088163669,-0.13608292090780408,733.2049817249119,-5.073186482082718,-58.38484814494636
13.200733374076338,-0.6166270833645761,-0.6810044038279187,-9.181894651377734,-0.002119179567697135,0.16445496297226544,-0.24801015874290444,816.8697012286325,-50.13271510857529,-49.610911463229115
3.160175565309184,0.19213404779543078,-0.897279087576094,-9.186960317806154,0.0009981787260850033,0.28340220953071843,-0.1358044509030002,765.237552033722,14.789530426701644,-68.33779627771096
137.1976220901161,-0.4019368172026418,-0.6300005724874549,-9.17061097357321,0.0232367884034908,0.1788148773149185,-0.22914784171686006,777.8590257035142,-31.79155527448364,-43.759621469478276
153.18851047280404,-0.25320158262521536,-0.5438471482643572,-9.204771773579841,-0.020068612781989074,0.2030414058354914,-0.2232035409213648,795.6541301246832,-14.635955412034377,-43.37881094658455
87.7148730485027,0.6937570430526393,0.5169793903414017,-9.142932249270677,0.03892596851575962,0.12955950608404546,-0.2758517008015321,801.7099346618655,54.08978140949318,39.43632772153581
97.04539141063393,0.6066581198751934,0.4934264801004577,-9.159119464344538,0.008905124520259761,0.18171564755302058,0.25900107562960367,815.121619836775,47.8927515392251,37.536176660303624
35.8219901105617,0.18744190758047247,-0.8177017705917237,-9.167957254768034,0.015510498407317315,-0.2653381792391818,-0.19759821276581294,789.3096667220722,14.416054603984811,-61.17860112382644
42.05233624090227,0.582539917836523,0.4624504471747566,-9.140457695387449,0.004458335517000907,0.18003813698144175,0.24502732449006892,837.8000312156487,46.409772488467645,32.136432243234275
106.88593810767266,-0.6660169749140358,-0.5218239925780677,-9.198080314117236,-0.009060503011141276,-0.309010631177316,0.05792203382128749,815.0663247071493,-50.39710865914151,-43.35389768955251
170.92949608311574,-0.7674756501475365,0.1435924391931652,-9.175023797610349,0.013618215404342823,-0.24680443101678223,0.198307446155445,768.2050515268078,-63.41109602488993,10.976870570771752
59.103283515750874,0.7663931135453769,-0.39617851553979194,-9.139744672024898,-0.01584515878462328,0.2767087987282019,0.08255407759678991,799.0694870527868,62.97183109448221,-31.550103192167402
66.62370131673983,-0.6685619443991514,0.5586365607771854,-9.23010393089748,0.03817204308171151,0.29412056651396634,0.014927067794389832,815.4131852784833,-49.8297042129984,38.060345588160196
156.15867548197122,0.16692193750736123,-0.6758371390057997,-9.155856235445958,0.05321318838899345,0.2680869251746546,-0.11090219182306882,757.8856311353915,7.335810466724627,-50.59746498648408
176.24979165509197,-0.5251784619870067,0.011406300953896605,-9.130189798350317,0.014119999200070541,0.02049259106646402,-0.3008105757216904,751.2515486985578,-37.45475896742308,0.3631035236413424
102.14567475970888,0.2404298706467059,-0.7541061413082504,-9.165090659640326,0.015556103221920074,0.28726132745076516,-0.0741335016924761,799.6220958131557,16.51769057884482,-57.90956043352053
135.20751152841825,-0.5155137287424701,-0.5485741698013195,-9.148332871889133,-0.002728497672164739,0.16748597893775416,-0.2321243262288067,812.6727990016368,-44.918013114608016,-42.206262495044264
172.549586088116,-0.5637340168738255,-0.429276890753102,-9.192870709558607,-0.016724416596421786,0.2066479770805831,0.24006519776346708,848.6362128937739,-46.18472252440527,-32.564955054006006
167.17928773820768,-0.19061212554759724,-0.6554941354955103,-9.183060011155222,-0.0030376772649772584,0.21358689891407118,-0.17944696440239696,800.8256812986449,-14.771983408218746,-51.08325700389593
12.700705594755265,0.5873997923982444,0.7489937305416072,-9.188031267082746,-0.035781243579622764,0.1473101329127175,-0.2403573948337909,794.3712570557194,41.54824276552548,57.9733745041781
99.18551030612812,-0.27055591706626403,-0.6813885977202021,-9.203902816220051,-0.020219658807841524,0.22631172497911703,-0.18270032725746088,779.3613989572862,-27.718388612972397,-49.50312991582104
87.04483582421246,0.6400579254764075,0.6011380924771755,-9.161402147847356,-0.019095726309170516,0.14793529175984363,0.2417960480790322,823.6030809747668,47.03998006149584,45.26469029316353
20.37113172954053,0.6268172780320215,0.678975960177115,-9.180113788530809,-0.03375438385162397,-0.2984118348897401,-0.025279109978448934,832.4392408381567,53.451565681200364,49.602332619923004
10.220567809322741,-0.7266232519173125,-0.5058158056617268,-9.180533976943403,0.01833096238749874,0.10193174534374566,-0.269103218805523,824.8393074614725,-58.64321195507791,-34.64967611115449
159.90888382687928,-0.7167717421595079,-0.13150780678391116,-9.171183474164208,0.019106957879870032,-0.2666910518153429,0.1343883453051813,757.8787633101131,-53.421180694962025,-9.891196421293865
88.2749041613423,-0.7610838828912021,0.31428357037549326,-9.16999292495771,-0.036714530678723524,-0.08318080885580395,-0.3084428229872052,800.3758078903686,-54.16498657548304,23.546585977934896
63.0735040835602,0.8384870402989735,0.17601244022081697,-9.149805737440762,0.02079598252478604,0.24336630713452653,0.19656734440362417,809.1939155267187,61.27527103111996,12.672109743108425
44.75248624923607,0.9365217426483112,-0.11402717128828035,-9.165642373938548,0.058985106417804835,-0.014690365985604064,-0.29242278487668355,749.3323446145661,65.45916524012024,-7.581569700812231
2.6601477859881104,-0.2105826455779955,0.9127906078113349,-9.199750861954028,0.006206168149486516,0.27809776784248263,-0.13032107887658265,760.4843779048338,-15.822352407584635,70.19780940833934
84.02466803711317,0.41166279485109597,0.8180615212425935,-9.122863319858888,-0.020142316674696546,0.09878350194150404,0.28658061932909934,820.3575611039905,31.935141645822583,61.01716053235232
42.57236513139619,-0.8148849471865154,-0.255024511880305,-9.198014960297424,0.012608620743224908,0.24923249847401843,0.20651833397043504,782.9163575602236,-63.715508019330436,-19.592907547591395
122.70681704539142,0.4251083842050936,0.5124797533575411,-9.220089088896954,0.007294286808482621,0.16344566601253557,-0.24605268467838218,809.8308215433535,34.120627854235316,37.61745574488894
87.35485304739153,0.25842287772173034,0.7448715144790771,-9.196234248992154,-0.02294612726436656,-0.29599640819563483,-0.07468842033361084,798.8054295219296,21.049143617296473,56.4837405704305
131.4473026279238,0.6405205652270214,-0.4068918447269843,-9.148438509870989,-0.01921757077134631,-0.18287516684937158,0.21730649092542237,800.7496373551446,45.629991999099,-27.664635326333666
124.0468914939719,0.5307400420814056,0.4437514691125907,-9.187956474339567,0.026318670470511854,0.19247344046997067,0.21689674769906464,833.47919598135,38.31952914757629,33.12453727338446
28.841602311239516,-0.2804524547236001,-0.9011474380861184,-9.14071310227496,0.0026496894660966498,-0.2835971925318846,-0.11031039906437713,766.4907007750654,-23.513096364367577,-65.78144150077591
73.05405855880882,0.6435012853206562,0.3978722253683765,-9.193937256018318,-0.043619574971488606,0.18917651318857828,0.22430685158728983,833.5197200236724,52.568161572268565,30.48308270908875
65.86365909217179,-0.4609628643370526,-0.7122377188353912,-9.185307690732515,0.0343112344193023,-0.3007861013327457,-0.04836387665839608,853.1113670963988,-33.77978613473936,-53.389992565756764
19.521084504694706,-0.3570264258135938,-0.9044992937410444,-9.212537304496061,0.03130012000785158,0.048053558417959955,0.29639653367385077,784.5816535341673,-26.5766372727875,-69.42452375436014
158.8988277126507,-0.5579701325073846,-0.2053858901931703,-9.178004129743929,-0.0044635167931872215,-0.29149671639566677,0.0979189588734039,805.5701034532848,-42.393457123726094,-16.467226562071996
78.20434468581588,-0.5135289729366396,-0.6489236098068024,-9.17781232803693,0.04505487072065967,0.17360223439217393,-0.27884016726546534,843.6964774330484,-40.42310179333665,-46.23546401323272
59.52330685038058,-0.36520377714061986,-0.7600316208114447,-9.165648034625816,0.07834848023584993,0.09725679335250496,0.3004788125883616,811.5094215039337,-24.32996814494578,-58.34612929129147
81.22451247291517,-0.7071119362683345,-0.40710958997454844,-9.175673922449231,0.02647087740054017,0.11195720667572796,-0.2853338671589769,821.8698513516498,-51.53788612344969,-31.258450298571447
27.421523417967666,0.9139568890567691,-0.12444498580162978,-9.133016206353291,0.013064487439939177,-0.24943116494471274,0.1810886773784596,741.4458786688174,71.21764847453481,-7.512006975810959
64.02355686427023,0.36594862227407204,0.8587602729371169,-9.150971320800704,0.010810532059803129,0.07113070026109669,0.25198630973169045,804.9714435379732,31.025909565618292,65.17223300620161
146.39813322962388,0.6837784191764829,0.2947143806501713,-9.148272516070392,-0.019825973215706144,-0.2818395316248389,0.08504086643498757,789.9271617392288,47.13753076127155,23.318903554284976
12.630701705650313,-0.6109467991495742,0.6803474302098864,-9.212327125383801,-0.012636836700489073,0.26857671997853233,-0.014829468446484254,821.0386426687842,-48.11418003424437,48.29916190192385
61.863436857603205,-0.401092453227812,-0.6494513182419607,-9.208379056715804,0.01993562026441744,-0.3264410612603864,-0.017921965698053197,795.4515609329305,-30.311300138410225,-47.56515714944151
25.49141618978832,0.15874637176652032,-0.8894321327090408,-9.127159606521575,-0.010201264156157653,-0.04373627871136208,0.2989433980073743,748.0028649162044,8.640638435414534,-68.36413994527271
35.841991221734546,-0.13744469908651996,-0.8265467770046635,-9.177943729366842,0.011341345346643774,-0.3080290381311234,-0.1330763517321064,770.342242615614,-7.277737659217669,-58.62368800983122
95.67531529529418,0.1397596674244581,0.7502193394080698,-9.194409520900171,-0.037946048193187094,0.2517386914739358,-0.19701624130538217,756.2615677864319,9.89298567441106,55.29717168376604
33.76187565975888,0.9005054408625416,-0.15065505433754,-9.176460497236265,-0.033937930997705965,-0.046264706715811975,-0.30728823272712125,785.7155735148688,67.24512608711561,-12.596073484204629
125.11695094171898,0.6049028755850359,-0.3562948255426138,-9.197852634552744,0.006473113066283658,0.29959194902070607,0.03298404526951012,838.0896801131347,48.87611937630548,-29.974200547098036
25.221401188954943,-0.7045678424128322,-0.4772043567158281,-9.17434346767093,0.008378471763400236,0.09864850474736811,-0.29903491809590116,829.806385082339,-52.21799445101483,-32.74113332434057
128.0071115061948,0.06592631599984239,0.7364096872082343,-9.246439063177116,-0.00998721513428858,0.012106928455782186,0.2962705056090493,750.850460795755,5.338670543288218,54.75028768737066
154.2885715873104,-0.5304702014299123,0.4483220074650777,-9.227211663340896,-0.016616674083549228,-0.1270928735671805,-0.26829804717652217,832.6246968895913,-41.27899231416787,35.63701930892071
50.152786265903664,0.23107227432179356,-0.8658608699277666,-9.18300527619592,-0.01567332170745724,0.24301051629174175,-0.11795701327531563,804.0595570161822,17.527759574708913,-64.338079834011
125.05694760820046,0.5927218696241644,0.40742146857249095,-9.204466071421486,0.017210609955231906,0.2097307419801211,0.23859405617971885,801.7266881784547,45.17601216450405,29.630802348054683
158.92882937940996,-0.6206907798223998,0.16735200466029734,-9.174176048992297,-0.008475232876436959,-0.2346275407161778,0.20761327759169956,779.7891267460767,-51.57625626090709,11.418305976877273
81.57453191843992,-0.8248749409400242,-0.1368333008671906,-9.186633085469365,-0.001189302713595494,0.25125144818221595,0.1797860993185337,792.0285036163989,-66.52441142834142,-15.938366989934238
136.37757653202956,0.4471430574526662,0.4583881973457096,-9.185254336137326,-0.0031612987089922827,-0.30516274336185095,-0.028374772713823423,831.0408908343476,27.205621011130113,34.29787708135666
8.500472248458248,0.008681829066943272,-0.8840564802642233,-9.187812660017844,0.002998060652000619,-0.0026778805930601154,0.29826762403659807,718.5353068626883,1.5572052897901836,-64.55923198065402
48.502694594144124,0.008403318826019364,-0.8196786410708934,-9.157243047308885,0.00045526935677170035,0.018646524763734466,0.2869262519994578,740.9335403556214,-3.800072000971517,-58.021046308639
85.74476359797767,0.771186837660758,0.14534039629933415,-9.17336085161779,0.0035399356581789928,0.03323715717176442,-0.29826312154081475,758.3470889442933,55.31627220370338,12.049803141576694
77.7943219067726,0.5934573292275249,-0.6272568293262315,-9.189619538490765,-0.0030869562898085505,-0.15806470658163596,-0.2233693628950837,806.1160296130575,43.50235847878607,-46.3197663507703
47.432635146397025,0.8693447364033369,-0.2646092003370645,-9.203598470703215,0.011955604150633101,-0.23417274521967762,0.18696063350940959,781.3198132494786,69.69203409311655,-20.2173461841461
93.73520751152842,0.6793143754746243,0.24694157746207823,-9.140630854592928,-0.047171756408948926,0.04948508695754543,-0.28540922898539933,767.2743077515744,47.383697860482684,16.740753907388406
108.0260014445247,0.365636096667253,0.6679808492491646,-9.200391559196932,-0.0005641711225222333,0.10115431839596521,0.29722539644791396,796.3749290428324,28.466407334625586,50.39323945540928
93.5851991777321,-0.735817784724537,-0.02534498960396766,-9.133584270248317,-0.03883047221468601,0.2440889195088382,0.13417662257170546,748.0089523832658,-60.40687247873699,-6.0590594117260395
118.38657703205735,0.6426345658581778,0.38465119999918623,-9.167708971432601,-0.021193451588440326,-0.3012054894387012,0.03471902954673002,821.6075165477706,50.018184264270936,26.823192507848596
127.23706872604033,-0.7444466152855759,-0.20922029291549973,-9.199148947994825,0.01914682989651681,0.06691918395494563,-0.2912690174854086,777.7441089918619,-52.58996716008341,-15.905331188740925
140.45780321128953,0.44696695357554056,-0.49387161872585833,-9.17775851576262,0.01343485604340323,-0.1485090029277147,0.2578923706792043,821.9461335873873,31.669233437501276,-37.952302802754126
83.54464136896495,-0.556724177548615,-0.5260872334211948,-9.138324597344742,0.03529727357278481,0.15129536930829596,0.240155637847685,815.8608689929749,-42.95743909273292,-39.18412655116027
104.64581365631425,-0.32776326459444066,0.723264622308464,-9.212975356061735,-0.016287427467312134,0.28854948094041716,-0.07834396349364049,789.231673324256,-26.36123893008543,54.297611780536805
130.58725484749152,-0.6565757820692377,-0.0019991636405666466,-9.179835652058792,0.009555272628763446,0.26254726224453206,0.16627601509509762,755.2987675753378,-51.093456038027,-0.8012147268087554
26.98149897216512,-0.17992121514147982,0.8242696864830866,-9.168392413186782,-0.006049955401806843,-0.07191954353099739,0.30438410316568076,791.9146621931485,-14.7502882001014,61.359527366588146
132.40735596422024,0.6566649176776974,0.12547426500460637,-9.200192014419493,0.0016676048794813593,-0.26628475243189725,0.11850553608962,742.5396228921352,47.83398029284997,9.174693140685504
61.623423523529084,-0.6521237947381798,0.5862787797002504,-9.206994051524086,0.00463377208267406,0.3008454843244899,0.012003340956316623,836.7386930056012,-51.16061209967215,43.32281032118065
94.59525529196067,-0.7282042435469266,0.27391757097017266,-9.179197707941558,0.006638977529185413,0.27811161906403836,0.0888225398656569,801.6832164857784,-56.65518810435979,21.02514841036031
59.713317406522584,0.6871645017181442,0.5676308207545452,-9.149761541687424,0.03475867015990057,0.11361286490673855,-0.2262183496680352,818.5710577028824,52.593246230651744,42.067477854109185
124.35690871715096,0.31955459298450356,0.6580900721439953,-9.121768707660154,-0.008414190035596129,-0.2749623288031474,-0.07820892478766321,804.5826565718494,21.63679171237233,51.590700894546664
98.39546641480082,0.7271017698182801,0.31350124581823,-9.113734981779654,0.01990246506568039,-0.26612174817140566,0.07093614243245909,792.3818627445203,50.7329709393934,21.418992537938156
109.12606255903106,0.4723580643135149,-0.4848591552557071,-9.195880510070138,-0.010106803862114239,0.29535184924578683,0.012110210830019124,804.7967992684045,33.585872174781976,-37.27264764746385
49.18273237402078,-0.13408017625873964,-0.8541411295247664,-9.116956987935415,0.00622113853494478,0.21693227296618786,-0.1814803338221411,789.4515516834389,-13.106504073627658,-64.83483964219104
172.42957942107896,0.6819793113266948,-0.17159189402626726,-9.122764368921793,-0.004062180289133349,-0.23706414560688,0.1778501851182151,788.0001619039182,52.20554520976763,-9.897383868690065
7.580421134507473,-0.8741415219667121,-0.06740055451348972,-9.205651740061352,-0.01814218665609733,0.2744223025251505,0.1663869703628224,742.9566478789268,-65.86250402215924,-8.486613194983613
166.86927051502863,-0.43019297738839557,-0.5121411257914401,-9.131339168087626,-0.002279386897078138,-0.29173076824937133,-0.03046832768550671,810.717929763598,-27.300991012138184,-35.71382398995838
49.30273904105784,-0.4655940175294098,0.6952224016145816,-9.222744847276056,-0.05812416570193928,-0.19870463808982375,-0.23441181907571007,820.0555972931309,-36.65319783866245,54.33152533325626
45.192510695038614,-0.3801104570434197,-0.7475136953372699,-9.140725990527631,0.006186177135641277,0.20347921594284776,-0.24715557522376333,813.1015806705694,-33.009178861693215,-55.37940154716064
48.002666814823044,-0.06687051274537154,0.8825033365627274,-9.143998052248609,-0.0018666977024763204,-0.0023555368482709874,0.2780142107633896,711.9089195907254,-2.8935160150770205,64.96548377035037
122.57680982276794,-0.761330311992127,-0.14481027063561405,-9.168211899150172,0.029096701489302653,0.24209222629154334,0.14635867609574987,762.2698661373565,-56.03365356961563,-7.5322079027261175
161.728984943608,0.5856439823633256,0.2279507470038043,-9.17986627536737,-0.014532876160971169,0.06869297344671822,-0.2981558436584776,788.2359233333118,41.99065405905286,17.872900308194012
35.921995666425914,-0.8058282127579872,0.08027108444040662,-9.168340626162308,-0.020218673187299377,-0.2668572016671646,0.17831349411004968,757.2450755054485,-57.47050628337449,5.76976783882937
34.25190288349353,-0.8328560091937792,0.00845761390504864,-9.19149679100816,-0.021983172676662877,-0.012073763888676186,-0.3111583108818529,729.7306761538291,-64.2783575211586,1.8634240229364822
116.24645813656315,-0.6877679896445774,-0.04652615537047449,-9.159750060027356,-0.00014579006705305226,0.014975508003727675,-0.3078045948179892,726.3277178044787,-49.470663230523485,-1.408175101906346
13.230735040835603,-0.9283528604028514,-0.2563417988584144,-9.162094372148994,0.022536322253039143,0.07103381507222245,-0.304609097209338,800.499956739917,-71.67511222914148,-21.184645045714696
86.65481415634203,-0.08643129010638265,0.7674260807967132,-9.201422141527422,-0.004968139309960689,0.2868631509456545,-0.10339334570290236,801.0046719931146,-3.881550054946306,58.007775690392066
69.4538585476971,0.6161842043825557,-0.48178468597335194,-9.162636909835484,-0.042952031132953004,-0.1559169018031739,0.2613498158435752,868.3948866976651,45.55534180127516,-34.70336810771711
83.72465136952053,0.6602779469990792,0.3926308014807283,-9.103995741870905,0.020347196678718295,0.09711640863417448,-0.26716164955897953,836.9400505129695,53.73434434491083,29.35007167202233
168.88938274348575,-0.5600423833225879,-0.3732221454812013,-9.144690081180268,0.0035222450409209665,-0.3160792262703728,0.07863492301496428,801.9627814804485,-35.76823533463225,-25.92687676351502
8.950497249847214,-0.6452085040609139,0.6051352938760889,-9.19922626564425,0.06950345609065994,-0.19102538735834368,0.24225084016975004,833.9282695349442,-46.83419282812275,48.009406078104504
171.43952441802324,0.7369694362251396,-0.2725704716269009,-9.168159231950911,-0.009123861184896056,-0.21658399667289283,0.25251417832291245,825.2767703549667,56.961828427975256,-19.27339851251509
113.22629034946387,-0.605755942170161,-0.34866564256266336,-9.224167786096052,0.0367020505382243,0.08316833991556102,-0.2894321003857725,792.2290899394106,-47.703993685572385,-28.245062864521415
70.93394077448747,-0.7760695777016248,0.2922978696218595,-9.189190563044686,0.024043980923429537,-0.22305321314819815,0.1923634881462823,793.1374708071905,-57.003000940964,25.131047355932917
12.2506805933663,-0.8800089695419248,-0.002295617233634541,-9.200537175720767,0.0038407494667167187,0.007591216852270551,-0.3293842130159153,758.0587071699745,-64.14519927188448,-2.1056467706952766
40.93227401522307,-0.823949360014424,0.3036551861294964,-9.189148600043477,-0.037978583765394314,-0.25243508527366226,0.1956563744686385,771.2843485477919,-59.40800846743984,17.953464846906776
23.121284515806433,0.7996595173734958,-0.6581087326698459,-9.1833036592675,0.008632977074066784,0.2991633310777323,0.030048254446817323,835.1990234192378,67.8321671014604,-45.17677508203734
11.820656703150176,0.15335562125488206,-0.8378226333852095,-9.199918235663013,-0.04434186309573595,-0.22599723204036123,-0.19469682627511078,772.1488075373994,9.134484269861257,-62.730013978358976
73.56408689371632,-0.6920611959649725,-0.4136323051307041,-9.177024341210155,-0.029942178132400764,0.2122629656211795,0.20634112595785856,799.2718261790739,-53.95991533059066,-32.06412281988268
50.28279348852714,-0.6756732292882258,0.4727693761705631,-9.243129500461027,0.040736467333341096,-0.10051709473361109,-0.27054977038131756,815.42380726172,-50.49916457376448,36.36752826248484
140.32779598866605,-0.02431589801057812,0.7156683397647421,-9.198741108551534,-0.00048203961207945317,-0.2523486143240112,-0.1876981654562906,755.3989862735423,-2.5453364781915897,53.98826672941969
157.85876993166286,-0.3979321671628601,-0.62652277593603,-9.147099566675589,-0.04968005115594919,-0.2872073244042234,-0.0633317855997746,802.4525544206001,-30.016816246101943,-49.9850098133783
28.591588421578976,-0.8788036013632148,0.08870681231955768,-9.164875042537783,0.07171579720815853,0.2814115241014573,0.13112588552054982,768.5346328975692,-65.80321222356365,6.572327798172743
119.58664370242792,-0.8099022941674933,0.06315978104294319,-9.224800787089913,-0.004097063491156022,0.2956384631815684,0.1548211992912316,751.8446683270465,-61.10621096070747,2.654471957050195
111.31618423245736,-0.29440299302623263,0.7111174797395711,-9.17778726549453,0.007501147301284566,-0.2410811381381582,-0.184570714405978,811.3206587087773,-20.77469998329429,53.81179535620624
86.75481971220624,0.8382241890271505,-0.02162272977252806,-9.187138974365633,0.020461753975710078,-0.022430892741140088,-0.2846555190360016,748.8305903073684,59.232440561663985,-2.2638223987086166
50.34279682204567,0.3003460444067589,0.8696353394803338,-9.190699315591072,0.014294137919135861,-0.270352033323839,-0.10711636396496352,775.8679289308803,22.528731648660457,63.362726757868195
174.83971331740653,-0.10165790144509315,-0.7200537398561783,-9.160799195436098,-0.014926874070420109,-0.26040419278295673,-0.14970369216254492,740.2306964931219,-5.805711271733154,-55.44114122775208
170.13945219178845,0.3381234405240559,-0.5953484495592527,-9.179499522218684,0.003176546117808896,0.28393180251615757,-0.056924825947069796,803.2928948716997,29.733203151473163,-46.95829752102292
21.121173398522142,0.6480101561423154,-0.6576171963968728,-9.202607223714669,-0.03710734016462293,0.3124320803151016,0.012791050829995659,824.9357105100516,48.898275655275334,-47.730231067410095
61.773431857325406,0.7715521647332961,-0.2814625928249362,-9.163222814551713,0.014594179265911406,-0.10488823291603515,-0.27334068806074135,810.6634394561881,59.83310484058045,-24.552406429488922
173.15961997888772,0.1716365256820248,-0.6971335934208613,-9.157753407904055,-0.0035501800018119738,0.2931518147580768,-0.15752500073306758,750.6722679702008,14.451069884722521,-51.01691872079227
7.640424468026001,-0.32977345692572707,0.810428691067428,-9.186533697658152,-0.05198687406917856,0.2897330565887643,-0.07113754567234402,814.0251196988027,-24.684939884212884,58.756432216776176
120.54669703872437,-0.5418638837655301,-0.5331383176655772,-9.17003551583692,0.016436407534292374,0.16620963083322302,0.24453068986092724,834.2667909242986,-41.07834679096843,-41.01514334805216
162.74904161342297,0.656169053889543,-0.01916008978155891,-9.139010326457672,0.01454550832380328,-0.005876774900764347,-0.2970689228112569,758.809528352239,48.47554908106876,-1.5862547888525627
176.89982776820935,-0.6914637048377263,-0.3315594779295884,-9.203127868107513,0.02329167487816003,-0.2861659861318156,0.10409021843485168,791.0161524268535,-48.37124698020733,-21.787042735483652
159.8188788266015,0.14078294764817506,-0.7086569233765966,-9.193240324867018,-0.00843984945238921,-0.23933265382849037,-0.1647830316572479,783.7960834589531,9.195521607793687,-52.70477585438002
86.31479526640369,-0.25620601209124966,0.7720121432168003,-9.186093848919356,0.07445650157304451,-0.20533686587038333,-0.21853901077820911,775.397937699215,-18.52883000964709,58.42456949100555
142.27790432801822,-0.538241643827193,0.36871585158737963,-9.211494148799023,0.0008910921037745772,-0.11186306186358058,-0.276164592897795,818.9522085906663,-36.01854431539168,28.454459846470186
142.52791821767877,-0.22567859150595362,-0.6344582357864874,-9.139912499740248,-0.05617442452824391,0.1072324979785564,0.2708453151479116,802.7113694832341,-14.314525338152942,-48.687322775700096
107.77598755486416,0.7119892107566016,-0.3173038160468497,-9.192071625974553,0.037802670402508495,-0.09669054916781984,-0.2806961370370542,818.0755329581435,53.401730240035306,-24.797487794598847
143.26795933107394,-0.7726958461367571,0.2298415469522912,-9.20613243050986,0.05152210953417021,-0.0727621906064409,-0.28574057190330243,807.2041697146278,-58.21047729227056,19.105699100922635
162.03900216678704,0.5647289362941772,0.4974667140645114,-9.172053635424174,-0.03533791927587573,0.12028691623247016,0.24486065992147335,795.6120918411099,41.81097233761768,38.279801142871506
85.96477582087894,-0.46319498685229166,0.5976135260639993,-9.160107582444416,-0.021876047696075065,-0.11714127567466656,0.2925656624461449,819.423291160543,-33.62383119361916,41.94826789546032
168.16934274126342,-0.11354992377833507,-0.7341969227500732,-9.191524823439824,-0.014253293950138331,0.2523894186270483,-0.14560093991583403,755.790717189521,-5.953870639827645,-54.8255359080461
9.450525029168288,0.7233686350542982,-0.5755345718570639,-9.222203919237602,0.007827278037889207,-0.1401057994563836,0.25501940709895193,830.7513489545952,56.03685251707194,-40.005507999252536
12.740707817100951,1.0017813559709015,0.19325158726684724,-9.190426975218513,-0.039084002465965044,0.02146431614940706,-0.29120939755263564,777.323298901752,71.5923839002096,14.093950400704898
91.49508306017002,0.06567939864385977,-0.8251662105251268,-9.17303756977386,0.09323870391089824,0.016341672550294672,0.288999972621165,770.9293201948549,2.0578726162097505,-63.790815698179145
156.58869937218734,-0.7097017663546954,0.125193314689852,-9.230701883752586,-0.04649370485821609,0.27071896627556963,0.14076348956284127,761.6413165920777,-49.94069031812004,8.558212060932318
119.63664648036003,-0.4362846041809308,0.6535986050181666,-9.218631387451264,0.039930147677156136,0.3083301260481357,-0.026221217584805914,826.1665856650027,-32.74310976185908,50.91046051352521
144.74804155786433,0.6561212658775961,0.07687625888701746,-9.197911013197551,0.003142916256801698,-0.023462881833186428,-0.30347459199028987,753.9216556618089,56.053703072086265,6.825937479612326
47.67264848047114,0.0987728612047079,0.8148921028745773,-9.191513347051435,-0.02848706999220968,0.25554396193310347,-0.174819047308502,760.5305685953815,4.5323127682593425,58.403668606620926
76.34424134674148,0.18926772879644455,0.7578723318418799,-9.192676038828992,-0.03340723960480906,-0.2803197290310021,-0.10993051897055185,767.7701094288103,18.970335120836975,56.773980093835654
136.70759486638147,0.657458529556549,0.4700801480585245,-9.177516086805491,0.03489916666990549,0.15399130532439662,-0.25531729780709134,810.3798214457836,48.021138794360844,37.15039939262805
177.97988777154288,-0.2523471000010121,0.5951093868749467,-9.17527121282116,-0.006119279717094887,-0.05331875572126636,0.2787043006276336,790.7267115224699,-15.534732399943568,44.873646602716455
103.87577087615979,-0.5559033123338873,-0.5145098689688635,-9.188097937682752,-0.05079836676910564,-0.3063976952144183,0.0026283172003149363,838.4251079248153,-42.97202410144082,-39.99559762468
41.00227790432802,0.034670567379061365,0.8910764023735328,-9.182706734077206,-0.016052809306425365,0.01910598499833586,0.3092524048075409,742.924318237923,3.979963275981714,69.3311785108501
147.54819712206233,-0.5884901427912448,-0.34535663271008615,-9.116971010045296,0.01960991025383111,0.17777651506586767,0.25124242454315415,812.6431157799567,-46.17122670050024,-27.522265078647724
63.06350352797378,0.7781615982271695,0.3246764657097859,-9.160175511650179,0.019351044620250918,0.22263777006076896,0.22615266041878349,803.4481194387741,62.417329198620735,21.480731010246373
104.27579309961665,-0.6812428009851784,0.33892038394606655,-9.175250194264263,-0.03073055663693827,-0.09941018439615562,-0.29945578095698117,806.713778898839,-48.222648102737075,26.016582159164923
148.51825101394522,-0.28110142612954947,-0.6951398537955646,-9.194925212705623,-0.009636162806719068,0.08085821245721452,0.28785524569309645,794.8100264936429,-21.717523074910215,-52.16009482524865
88.42491249513863,0.8105966214281315,-0.1288844244513821,-9.183531661014984,0.00802392567129909,-0.23412196113751282,0.1803373769134751,778.2441665741906,62.54529561664984,-13.937242293843013
27.881548974943055,-0.8095410775282521,-0.5915316806920017,-9.209411899744948,0.007725130406771909,-0.29264866223768177,0.026943690315006468,813.7572421534574,-66.36348261386368,-43.678983810073035
157.1687315961998,-0.012612075958850973,-0.7424489659460516,-9.236791796965601,0.009793047413807158,0.2752853089828899,-0.17631223852363756,731.945918635339,1.7717190104703384,-55.66329085637037
89.02494583032392,0.32653745188616423,0.7334931539454189,-9.195387625297279,-0.011045636420658922,0.08240987138746331,0.2875031170463349,802.8563506815727,26.849966348449556,53.9766487427766
164.7691538418801,0.7262881053984456,-0.27206363332480754,-9.154296618093154,0.021983634219681695,-0.07777519596597361,-0.2615833950548969,798.6931472124161,57.770433230800364,-22.369636334769822
68.87382632368465,-0.5514936631159703,-0.542825101378221,-9.185475608280505,0.049587792239887726,-0.3079013605177765,-0.02009175205541521,856.7548578161869,-38.69669964864581,-36.22163994583724
144.66803711317297,0.029886672607325332,0.7284745077364648,-9.18813159072922,-0.03967284015310463,0.25873319215346974,-0.1514437154005662,749.4684113708049,3.5630428486825965,57.973789396982596
148.3082393466304,-0.2696992552640986,0.6096293280381625,-9.14837166627563,0.0642461941935665,-0.19320082095707805,-0.22909462869578168,807.3009658899188,-26.962118606773853,47.22480438816205
67.58375465303628,-0.7928667734295065,0.0230853952749866,-9.145904499516552,0.007546357533135152,0.2572910230276971,0.14677499904460065,742.5638080931096,-56.513029666512594,2.8798922839111043
174.06967053725208,0.5714974773490237,0.12558274235943825,-9.194718548312707,-0.046542503526835415,0.2284971495250463,0.1751913782600233,761.1841913440284,46.94565147043101,3.834117628421846
33.341852325129175,0.16614963407693256,0.8665107098340011,-9.172036766605132,-0.03550890564868852,-0.2740012775524472,-0.11648213694699057,757.270812621694,9.792872808714506,65.64000255370992
21.19117728762709,-0.43505157481254636,-0.8095838744533795,-9.140636912367375,0.007586826211908376,0.21910942062221478,-0.21848572366082206,786.3398606946257,-32.30192642197451,-61.31263076129172
13.260736707594868,-0.9431814787693297,0.24267588284913097,-9.148372533224942,0.03250491161405816,-0.036412025175861056,-0.3200372984526881,791.0146059816417,-74.5976778912046,14.71511022293728
159.52886271459525,-0.29383600429150775,-0.5302610934005209,-9.133692706804055,-0.05956739978700146,0.10857804252919127,0.24945032814109863,808.729535523719,-23.352966188248185,-40.97611546425933
50.71281737874327,0.6590518631121125,0.5064928889287827,-9.164871313049344,0.006991854672533957,0.15263318066072745,-0.25875018395016114,815.6427824155757,49.12455839587685,34.41519443771101
119.42663481304517,0.8385796658600154,-0.13757285213632442,-9.192036513099556,0.04277000661606692,-0.2521544308431705,0.18995560335532288,751.678860809024,65.61533013893633,-10.232292208571211
14.590810600588922,-0.8824671517473169,0.17574590039448468,-9.16079828626774,-0.01882504136167879,0.2788559771914614,0.12659214493285165,777.3486908289524,-63.59113644888477,10.452669076848585
83.90466137007611,-0.7571999289408631,-0.22892649018883723,-9.16287638981251,0.03388532449127038,-0.28344862552936906,0.11154187477725036,755.4227757578117,-57.10685606185508,-19.836743492637844
57.64320240013334,-0.3881460322447915,0.6798781239525746,-9.15052938781599,-0.09981596053978291,0.28939849152704583,-0.06781627639122957,813.0795692917138,-30.787058016506272,50.51369235567328
30.31168398244347,-0.43392066356661396,0.8523152406850492,-9.25453227594482,-0.03476571517373174,-0.23076469848325112,-0.21968575545825855,806.2382426555355,-28.885874536417838,65.27786281618289
47.20262236790933,-0.48005568552152655,-0.6658269616680811,-9.184302136736623,-0.010148041045548102,0.18178311667170194,-0.23205408189557702,851.5117225094999,-38.42564597370606,-51.12499911737846
58.62325684760265,-0.7145847867141804,0.5939400695544361,-9.224794810040535,0.03734397977896991,0.32239496772258636,0.028180652832113778,839.2594649429833,-54.23737019505649,44.81092197216128
114.02633479637758,0.3100003354004054,0.5640788318878442,-9.133672010061831,-0.011981086929392593,0.09400023867484579,0.2881401728522357,801.7061459916958,29.577519328601596,40.39076965061243
69.25384743596867,-0.9299553872245995,0.05272777464115435,-9.113246381973926,-0.0005440507665465182,-0.009110661698922681,-0.3070563728393576,758.9092423259402,-66.5924901337307,1.291120078787869
47.55264181343408,-0.7618722021406412,-0.5030485029527667,-9.189524186103366,-0.03331681659531378,0.19518477026778097,0.26061458427786055,823.6191311288624,-51.122532658248105,-34.699753005452415
82.11456192010668,0.6045057524771822,-0.45729855013429,-9.17997558678646,-0.029049179423965368,0.2767015574106806,-0.005804844564379114,838.396657654127,49.13481507954911,-36.95218964300886
90.22501250069449,-0.6869381371144824,-0.32591892314740273,-9.160676767568777,0.010565933803754314,0.09959168027518482,-0.30293480724043226,821.4692716119106,-51.1907650046413,-28.454486694818648
161.88899383299074,-0.6216135161417716,-0.3551935853312489,-9.13873908368371,-0.030576743451418458,-0.30101127617288703,0.059008588869637675,814.1423180908954,-43.40335815502305,-26.359854239082775
162.96905383632424,-0.4153970360967646,0.6387254452703311,-9.177585543342088,0.01710800438271089,-0.12084471954181719,0.26082005862897234,804.7712989282029,-36.355517309317335,49.192884726242
34.3319073281849,0.10581027284128615,0.8585096697759907,-9.183359051564437,0.03355777222318416,-0.27364376794244727,-0.15983090866049954,744.9693713885304,10.843689643571091,63.828184424758284
15.860881160064448,-0.5051534324115935,-0.744189835359415,-9.175330617570083,0.08482038356598239,-0.33234034939979396,-0.05703573733913637,799.6742505748807,-41.091763536525434,-55.55945448420657
13.950775043057948,-0.7597217324121766,0.5675962356487538,-9.156570505683913,-0.03322209721292839,-0.17315484972386647,0.23481663410816003,797.7943627009444,-61.794941417306134,44.31736988911219
93.08517139841102,0.893385988571641,-0.012418936934825186,-9.189249169859584,0.002330365512671862,0.29090614716245705,0.15632324091523414,727.5940310754074,65.96943776163329,-4.113484247686127
65.08361575643092,0.901448751328029,0.025245486921940632,-9.166748727123206,0.016693549318311955,0.2768647360244006,0.14875947970036404,734.8669570793821,64.53369971253193,1.7076637997592061
87.57486527029279,-0.7673209340704439,-0.08593017459918452,-9.138726133113488,-0.006941611213555458,0.23037216987638948,0.18250914192691695,735.2012854885097,-59.72140510471813,-6.088962816252896
147.80821156730929,0.35033335551162714,-0.7014717979197197,-9.110924846160572,-0.03519658354275543,-0.18060396170683402,-0.2200042341247841,804.215004044822,24.122904625613565,-49.212131159873735
171.75954219678871,0.6026034032588691,-0.2074662953757389,-9.21308904952796,-0.016078067123298803,-0.04812987413601352,-0.26868871910283404,736.8030778422448,45.1144051578554,-15.328874516862557
160.518917717651,-0.30185318711518583,-0.6852166101924113,-9.203708122490363,-0.02373378045517662,0.0857220475147145,0.317398641993533,793.4865801659334,-24.09607697794771,-52.21405550120309
146.55814211900662,-0.702233761072425,-0.26834938459132934,-9.236748554093955,0.027199835327616998,0.2018236284419059,0.22984726485811466,803.4626428547151,-53.87085349820768,-17.727225237800287
129.89721651202845,-0.7653330578662924,-0.29363898116323245,-9.20660603178425,0.07669362610997423,-0.28057051559634516,0.0811717421822529,799.1438582288285,-50.38883567975563,-22.450223428138248
125.59697760986722,-0.818243350999517,0.24289933229005192,-9.13338498910923,-0.01097266452157359,0.25688641980705257,0.106751456573972,777.8276156928647,-59.448808307776055,16.39546403344344
96.26534807489305,-0.6827664959390451,0.23673738832811467,-9.183607301501175,0.016201329080289376,-0.04278041051905569,-0.30538737766791174,803.3972922516548,-46.151476450306596,17.506871954241717
54.74304128007112,0.911053044278939,0.16295851610644288,-9.153751155537602,0.0063974556673795716,0.006962936412410199,-0.28080115709344367,757.6235184822042,71.1465484411321,9.855799240494884
68.32379576643147,-0.23189105087400852,0.8144625397775901,-9.164854266637395,-0.023704579785031554,-0.22375226387223882,-0.1841012331422205,742.3643611324144,-21.109616312883333,60.48035785279355
123.97688760486695,-0.29343404290757763,0.6570747473970368,-9.176531919357272,0.021641939516126286,-0.080848030191816,0.2621503521425726,782.7724805475918,-20.66458008475169,51.7408442624922
143.53797433190732,-0.41985207914747524,-0.5404454885174717,-9.148414991888313,-0.03520684114059227,0.13779188292241346,0.2687249354897776,852.5899823212876,-34.894297419347424,-37.34656699079535
125.69698316573144,0.3114078574340736,0.6423788014393689,-9.156888952970142,-0.001919124316727616,0.18671701200164334,-0.2234731767082473,811.8103962415742,24.779642970919927,52.263233029917
120.16667592644036,0.0245819435036642,-0.8069327089627997,-9.161199400090677,-0.037217363398606325,0.2827313644292005,-0.15320040225509907,756.9931712630869,-1.3634302625536443,-61.303317531546234
134.77748763820213,0.6315794231004133,-0.3021342988053672,-9.167007962956694,-0.0018595908057900982,-0.08973754288353142,-0.2966873186329711,817.2216308320529,46.959961560323,-20.670401600220107
72.50402800155564,-0.07846270551722866,-0.816239037154311,-9.18257824707235,-0.04868157436192348,0.005766114355101624,0.2868126494157192,744.6766070320767,-3.373434578984625,-61.36815812487354
32.991832879604424,-0.14354428018191717,0.9166908134040921,-9.162636243292898,0.008989088209357475,-0.01601082672769029,0.30465883932786564,771.7044426037867,-9.577535524772811,66.45062357765619
91.52508472692928,-0.3165178828886737,-0.7509619491328869,-9.182874763174974,0.10428839175873482,0.12027161011701906,0.27300042004665737,811.6387005216583,-24.4373184313142,-56.36765088413579
48.84271348408245,-0.10994396941308,-0.8219670099102284,-9.157331457233324,0.0010611830325076416,-0.27012247914707305,-0.1158070531078027,793.1065184755956,-5.077078066939841,-65.56924691189938
114.71637313184065,0.6357975242833113,0.44911783287118656,-9.196208304845117,0.001530747289166428,0.12428307877875276,-0.2645063280792191,785.8440107011119,50.213671034841255,33.49359865718779
145.08806044780266,0.6592063032011077,-0.11671039599043816,-9.17916663377828,0.009180575388729444,0.29269045502246727,0.14267624892415498,745.4329447806346,55.361628586167384,-7.486776808393467
152.59847769320518,-0.6535783577123564,0.2197970646136808,-9.16333285026832,0.04321505816091322,0.27620078749331683,0.11696229029503406,780.760791764178,-47.494248155278726,19.36869582100425
117.92655147508195,-0.6760449100296894,0.14044562805945543,-9.212344211288448,0.003130647977704775,-0.24012639616612189,0.17583991342504718,774.0883641373971,-49.0179055922227,9.27952471880215
30.321684538029892,-0.2697163693290054,0.9105750109556654,-9.256484762078035,-0.023685170240542695,-0.25739483054968243,-0.19300137693500788,777.7575047835044,-19.757498738079207,71.24123578282205
57.863214623034615,-0.4631115189662877,-0.7629493073188172,-9.120770325899837,0.023568399812035463,-0.29497878023305085,-0.06575156736165133,799.7673682071272,-32.713466756744374,-57.124944783872095
132.09733874104117,0.783188497559519,-0.2701101814366812,-9.201516269784284,-0.029675296006475296,0.29009824704771664,0.11307726411948431,798.5718821563714,59.49025127806859,-19.766811063793856
73.42407911550642,0.7528550806370401,-0.067997536038322,-9.128651587061219,-0.03422184076206277,-0.22854436848785342,0.16550539140966816,769.2554585262512,52.646078702618766,-5.507370164544333
65.18362131229513,-0.28875519240586206,-0.8689974063010856,-9.149901300394362,-0.019484328649317862,0.2119410275558897,-0.2384924176610239,781.3283006564128,-22.11278896450309,-64.07026029138302
124.87693760764488,-0.5286563598974567,-0.4373714595458198,-9.123068235561005,-0.04085489674712624,-0.28380674812155815,0.0017140857905366706,835.0846398398544,-34.79996642550461,-28.248305012634532
20.861158953275183,-0.5375792440854118,-0.815043338052919,-9.12105664376728,-0.028106914539736513,-0.305170750579414,-0.07864317317882089,839.0820082462128,-37.018683412676836,-60.204451734436546
162.91905105839214,-0.7062354834600068,0.09141192229385366,-9.178220446125982,0.009742126697496863,-0.2606945357152033,0.14387837601435918,715.4170226622161,-51.566086778749884,4.648941541363158
3.7302072337352077,0.9832613625565397,0.27051357174218704,-9.155949959343259,-0.00406487657404267,0.07849329694524074,-0.28286383373327295,791.0275977983025,79.90765733404339,19.671238413239433
21.821212289571644,0.2043825518664098,-0.8716922858046487,-9.165669623440346,-0.017787573875403608,-0.2174138176731484,-0.175565198428303,780.3154771841691,17.60184424118021,-60.54820255543969
80.28446024779154,-0.7391424296007296,0.6037345260341841,-9.11179395977337,-0.04143702781675046,-0.13708028496871377,-0.29056698160242445,821.8161528886562,-58.53715460553558,47.96658074459742
168.12934051891773,0.4420530318894147,-0.5783046010761825,-9.169579927892368,0.0010821701154820034,0.2960175037377854,-0.00028310228090475597,813.7404910409473,36.213934746430446,-41.814870461765
129.7872104005778,0.5461463601567846,-0.48134889509107426,-9.136077980011969,0.018644675102891896,-0.1585776032656421,-0.29941928237296805,801.1747575570514,34.884851602730556,-34.158284947100434
40.45224734707484,0.7557819833674503,-0.5284472300819388,-9.15679729341208,0.008592842553912369,-0.1740430613070275,0.2544020261025805,828.6097289531532,57.682133341289614,-34.57945211861961
136.19756653147397,-0.39964562461797765,-0.598870410349645,-9.197857929366736,0.0005824383412820067,0.17966009980428616,-0.24746723110767854,849.1560419795775,-28.140059230253886,-45.35618724259743
125.90699483304628,-0.6628145409357176,-0.08757044542820833,-9.141721093683252,-0.011964834101792396,-0.2662892165257641,0.11757561882347542,752.650189344018,-51.5504860075229,-5.111717189757714
155.0186121451192,0.3422555545900697,0.6361521821579531,-9.137801693769934,-0.006087267335106245,0.06062210419409235,0.2760577199958759,784.4062415367174,27.457578605989067,48.80555904808108
115.27640424468026,-0.7388219360698227,0.3025787138302021,-9.143518772214133,0.05187314389799944,-0.07056984958085814,-0.29440800688690016,819.9883301781288,-46.38982588963239,21.7893791119445
147.63820212234015,-0.3819599953887017,0.6817124839283917,-9.139129853926226,0.032350589429515034,0.29835476764615443,-0.02938661638598035,823.4693305989878,-24.991546211520035,52.19403381706825
146.6081448969387,-0.6159327442440052,0.37217626661618985,-9.216364538780368,-0.0017857249290010382,0.2980959081219041,0.05440207955666633,833.2303435045327,-47.79236766701553,27.20104582191468
5.860325573642981,-0.4260103268861546,-0.8050864849791579,-9.166780401790332,0.030104930014319808,-0.2914840365118495,-0.04896868990620717,805.5541297031639,-35.09357722935205,-58.701544188147714
159.93888549363854,-0.6208688250868754,0.2538220938520971,-9.172653031585467,0.015107794070818246,-0.20028326548241196,0.22559804480704415,824.8143228161508,-44.33233047046272,18.518877090604835
134.31746208122675,-0.2457428305704641,0.68715230576129,-9.124989563300277,0.0011437604691158284,-0.22386479049322752,-0.17109846981533308,823.3377771144566,-21.430667695741075,52.947934908340876
174.3096838713262,-0.15145287983216157,0.6510429257921874,-9.146352219693519,-0.007656877491230922,-0.18282382810217357,-0.2146078081087291,792.4821122298177,-15.007758744633206,52.95454229985987
107.0959497749875,0.7234547803392669,-0.13217155992593632,-9.168641223864398,-0.006933459065185338,0.2661187287383306,0.11146318956459426,804.0468727872902,57.47444679785423,-9.600705366044611
104.84582476804268,-0.1806943319012734,-0.7751337095793046,-9.202577159513776,0.014925937331584095,-0.2757073303658212,-0.08641555827311141,766.0417885762633,-12.348464816636575,-56.10272547246573
145.9081060058892,-0.7832951080177094,-0.11310147292016384,-9.189467549263123,0.006474964670950059,-0.26969987578511845,0.1337896017619711,761.0965437592246,-61.325672513638985,-7.863931478665328
165.1391743985777,0.35347641423102966,-0.5050203587882383,-9.151591682136251,0.01934280776339132,0.2987208679995903,-0.0533058487955445,813.1457381929696,21.69280017669908,-37.75637551854273
31.651758431023946,-0.33751974552755215,0.8660725840891484,-9.130443716920336,0.003842262547648093,0.2860511050378478,-0.10920050020387256,770.8252729652812,-29.2086028908972,65.00013805431432
81.08450469470526,0.6634361542093198,-0.006319557046295413,-9.12940070588004,-0.03459497984847013,0.24631882583076406,0.14538283894386034,730.0601719987219,51.794923627280866,1.1715956580024056
14.840824490249458,-0.15640751598054026,-0.962570182508969,-9.158586996652115,-0.012642019592752029,-0.29203819644415746,-0.12507039594413727,736.408388701875,-16.031836196472533,-70.27376337807283
76.03422412356242,0.4232615169273352,0.7133698110700455,-9.150047315612564,-0.016902824446960774,0.1249256950444253,0.2593041359859038,837.4370865249215,32.3026256869984,52.37325308498447
40.40224456914273,0.8425569243979726,0.2682021493180043,-9.213261230219715,-0.032566323195437175,-0.2638870819302458,0.11200872014399677,791.3086569202733,63.15350707194408,18.930494638596734
67.35374187454859,0.3616379919478518,0.7635576447035713,-9.168736544871406,-0.03853056153068344,-0.2717995913088945,-0.10597544609463085,789.8366608953442,28.23300158894518,53.74686814536441
117.73654091893995,0.6734794575893457,0.19325943000292456,-9.14428573530536,-0.042687997616426186,0.03850876831879324,-0.3124238806095053,776.7372327135294,53.00081822761461,11.105362805491406
4.490249458303239,0.10264255677836005,-0.8928803896206947,-9.169414838715745,-0.05013272750922918,-0.039627851542443505,0.30091248036306345,766.9034691353555,10.381967834753414,-66.74123730051814
60.2333462970165,-0.7734664213811167,-0.2254892227508158,-9.185998716584622,0.027692539731601202,0.0957412511054691,-0.28520490143145527,791.4083806342286,-57.72648092155149,-12.968952550682973
124.29690538363243,-0.4877481735150576,0.5689827412187656,-9.112483449453745,-0.011162857044934197,-0.13780276669153413,-0.2609699100136999,800.4792973198087,-38.889557606629594,45.33657363425796
138.6377020945608,-0.27549915030397176,0.6396866518675706,-9.164207676804997,0.010384978834111594,0.29521056129485224,-0.05051078143971968,809.724112225727,-16.795748812130903,45.93916524908561
36.472026223679094,0.4262348461303702,-0.6942740339820122,-9.157046500936127,0.021110247723777134,-0.10566666372604575,0.279813830938613,799.9549428168593,30.935527334613287,-51.31630088978636
51.23284626923718,-0.8509894500263426,-0.3629604742008585,-9.170726678303623,-0.03944352902989349,0.07804131960644933,-0.2645147777868478,820.5013471357478,-64.93070335057594,-26.926925044770943
150.60836713150732,-0.6206421578562534,0.4038517541439432,-9.161430271711675,-0.02216244004273164,0.2813909612901881,0.039671317424471615,833.123833051079,-50.816968645319825,27.487436339292103
96.2353464081338,-0.7185032901494413,-0.1993044668417252,-9.169608298709726,0.011412395091610511,0.05739143696782838,-0.3016129322649753,793.4304964439557,-53.007201178393125,-14.883342466611252
111.6562031223957,-0.0608000780850798,0.7707229254963875,-9.201393376865958,0.06946809585282154,0.2835808191033175,-0.11970506546510927,753.7859044447629,-8.022477191510703,56.49964919472539
32.48180454469693,0.32510710053933584,-0.8690348014637617,-9.180121253285852,0.044903231110540204,-0.06825260143906176,0.29348465250649286,798.595281567595,23.709923286531225,-68.62923022329679
91.6750930607256,0.1171916142596477,0.7651841208149213,-9.16397805215318,0.002464430843138607,0.2224690499743194,-0.16371683524306668,763.1342435418127,13.64058176043468,59.33736248327628
166.78926607033725,0.4398495360806112,-0.4883564800193281,-9.178845580619406,0.00091206408108992,-0.14237461197301937,-0.24974183045124124,831.4835292734133,32.95337960241004,-33.016302895428716
158.59881104505806,-0.604882090503202,0.19214281475234518,-9.161454615094057,0.038220880058055594,0.26667900120678867,0.11383015009447496,764.0150654929494,-45.7021821002046,18.682944374410077
140.84782487915996,-0.21092054915000902,-0.7568439374211626,-9.118139891214978,0.025461400493491923,-0.29866675443177637,-0.09857427811679105,765.4872568963395,-16.913220684030257,-58.82034900318293
107.91599533307406,-0.7958762332343281,-0.10039080226297606,-9.13929002538846,0.034383372543474955,-0.23899418490832328,0.14728405040591375,748.121712885607,-64.50563206565481,-7.945393449283456
76.77426523695762,0.5941601293204235,-0.3033285506932471,-9.164296378134676,0.03564387363460309,-0.0841506156468076,-0.31477339640096746,798.4142153788155,49.41603603316252,-21.636168591754732
132.13734096338686,0.4208137492655592,-0.6660718241271738,-9.245656953860337,-0.025864284357051553,0.3129904221204147,-0.03660718045713906,833.3094413220127,29.91284360942384,-47.319447469045095
14.890827268181566,-0.7774904131456704,-0.39925190945159283,-9.14908943812399,0.024818534308888873,-0.3055544504531219,0.05984649956266094,806.029726771367,-59.612744559951445,-31.346399521505553
177.21984554697482,-0.5659321229634636,-0.3288430386132414,-9.181516773498089,-0.08090148300967367,0.09339478496970523,-0.2701398851762738,859.3712343905717,-41.37771760664017,-26.19267193766361
36.822045669203845,0.24171040197255658,-0.8937481697926251,-9.129775540852012,-0.015340392252663088,-0.24701025482284192,-0.17983161125569505,772.837871660984,17.94954875724877,-68.89866207740475
160.6689260514473,0.00905239359519928,0.750245833677589,-9.165350273912722,0.034508098797416925,0.2617812885672825,-0.1647471055004528,749.3233077493045,5.7309001719592,57.69155369081428
103.16573142952386,0.0772614651294764,-0.758684555621669,-9.148242903469791,-0.0025345924649281706,0.2397682420620574,-0.15595368730377288,699.8569367984973,0.5271658928712402,-52.74138041803407
136.93760764486916,-0.6019949090435635,0.2717769378661166,-9.202522434089044,-0.020127330281701016,-0.2002307867948523,0.16946256589834888,801.8605911689684,-45.28144172373126,19.059322595312082
95.02527918217679,0.44877653387007493,0.6536971242070336,-9.165296662979177,-0.007340697431835525,0.08815967483227712,0.2849022716247605,802.3648474161133,32.23267387739078,51.627329278599746
29.591643980221125,-0.8836582185390418,0.16778349902135098,-9.192875925952755,0.010712527870916106,0.27276112644914047,0.10666544834635343,765.5833533584935,-69.14089174566853,12.689893879169539
178.7399299961109,0.5921671849261352,0.20077911651554314,-9.194713447198486,-0.05028246108876856,0.0350578877248498,-0.30947766747894917,751.1549715384697,44.68685101233496,15.658119489036972
84.85471415078615,-0.27698729186103094,-0.7639367113634646,-9.137823268867184,-0.02164334360638068,-0.2817253722800191,-0.08277640103664179,789.7021089799572,-22.238360725670336,-58.87901880843313
4.680260014445247,0.21719146504770417,0.8814573830673867,-9.18450062833704,-0.05766932458218832,0.19492227426650605,-0.1943519466154093,789.2435742082234,15.343821216846939,65.49655608752519
0.27001500083337965,-0.927634058454448,0.34845515320601483,-9.161902449575727,-0.018764203431316462,-0.06756787910211272,-0.25173135518860584,802.5272874277473,-69.27591651756119,27.538839529066536
40.97227623756876,-0.45060964063605113,0.8149739618224474,-9.181527784097636,-0.03819766249541174,-0.10832414316301865,0.2914809551472275,822.5798891172986,-34.03915585349993,62.87094425711827
78.0743374631924,0.8164010875226677,0.16959096089742587,-9.158849354409936,-0.0199572567831915,0.23304794902866052,0.19376450100238507,775.9984554484286,62.44883496930255,12.462011923089369
138.18767709317186,-0.22609547418826045,-0.6875649665060719,-9.15566805712607,0.03604856807728923,0.21524456724779562,-0.2148433895275255,795.2412979826848,-18.945237828099675,-50.74901326402958
149.7083171287294,0.5877553176616899,0.4819166603171977,-9.2026615396965,0.024051156945963086,0.1483780134094069,-0.2683652287970106,807.144399043214,44.81025530817537,35.53731344184123
8.050447247069282,0.75123347962109,0.5631515775260016,-9.152234139962331,0.0511060151883907,0.18325562351393143,0.22872656800487226,808.7351551950443,58.5478873810794,40.28356580880095
146.72815156397579,0.6629520539200418,0.2044360519765339,-9.186355579328676,0.0018949683887129547,0.055003083998831456,-0.3055226394932761,795.202340004497,53.60728333031927,13.399747752559742
77.00427801544531,0.09369204608099391,0.7943283795389663,-9.186522737925381,-0.03910275841481379,0.03453887993809612,0.2743000748237646,726.4343589999723,8.601810023280775,60.55653013983305
75.56419801100061,-0.7706314150417881,-0.2750052947025094,-9.173527379864982,-0.014943503703601865,0.22563876463368998,0.2127068226951735,820.5848801522761,-60.76510357259304,-21.078906501478038
171.52952941830102,-0.3046084821338329,-0.6192674286751239,-9.180087281075007,-0.03625762352686469,0.11519094750855857,0.28510709832662845,807.2708777967018,-27.463932192499097,-47.41486741071808
105.98588810489473,-0.16447740754897391,0.7145506417746184,-9.149562258203863,0.016174813471237358,-0.05045654875696788,0.29769559350325586,783.4262945657911,-15.087230166934086,52.274162028314336
95.45530307239291,0.6038675414943377,-0.5740800187482868,-9.157087247694887,-0.026164271734701733,-0.20293263278748525,0.2800495884134021,835.1224799457409,44.2164079384355,-42.370194383264874
70.92394021890105,-0.8200560731763783,0.14383311128920473,-9.198629963005395,0.028605210168005806,-0.2463372755357158,0.16156330523513632,756.1993323011042,-59.684380364819184,14.361755805939627
33.52186232568476,-0.3835402761606551,-0.8489159600589695,-9.215391653395212,-0.06347276055911014,0.06297587514416557,0.26179068057586397,825.9048511457235,-28.304289412378928,-61.824393064429806
11.430635035279739,0.8901125786372802,-0.17189517883833494,-9.197948370182493,-0.04200814056598955,-0.22062255661493507,0.19192480323392183,774.0805395760501,70.3313440789621,-16.525702726185926
164.4291349519418,0.6410679601788217,-0.15645699203260685,-9.124744779294161,0.04823644148874031,-0.23673031367537295,0.18141887867500484,785.686571298541,46.75178427404566,-11.84624111515348
27.37152064003556,0.6719808416280374,0.6947179465366606,-9.122218314148776,0.015774316938228897,-0.27981814571543023,0.016626079107964622,830.8130261137942,54.80332090689406,50.390645048113825
166.02922384576922,0.3427164979955983,0.5318317287692798,-9.245533433680066,0.05783761244916961,0.11326358294109734,0.30437017257596277,810.843654335407,23.328693411842146,42.503225800893425
94.41524529140509,0.7222568249070457,0.03938015899741617,-9.145120813408468,0.021747958692660434,-0.2554970784106053,0.13466024852804873,779.3995263546648,49.29266114353573,3.619296585977633
42.26234790821712,-0.8290793497818989,0.21081682609993,-9.156399412702784,-0.04637788323142114,-0.04858529350733434,-0.2959982837260575,796.3103584904509,-61.75747068606305,14.695780209432298
126.12700705594756,0.5754114698204185,-0.627502810931402,-9.118226037125094,-0.004189770744677955,0.2939902295945223,-0.00661791685954081,832.6888928234825,47.724891846732945,-49.45370816900403
90.49502750152787,0.024777993466682125,-0.9298731723185091,-9.175489772593817,0.006166934437561506,-0.01283305480252538,0.30177814762583716,755.4132173543131,-2.928299824519489,-69.26385884783924
60.62336796488694,-0.48750831811131945,0.6375633696607396,-9.135081708059563,0.013431825394984793,0.3086734106543037,0.0242459563173409,810.2042953506198,-35.46075059768583,47.685390170438225
43.38241013389633,0.6882524375055515,0.49624786408928473,-9.182820044600223,0.0019369054063135443,-0.28759421586855216,0.03211970127525203,825.4404072688309,53.93353392266438,37.53264508900248
176.76982054558587,0.6661711541819325,-0.23538002545810555,-9.180004751857016,-0.056692878824670494,-0.09421672605908589,-0.2778953820182367,795.8771489789136,47.79199005706158,-15.945712374186611
12.060670037224291,0.8216448038313654,0.3849542407787579,-9.150001577858422,0.004297739226451747,0.2203194728057078,0.22481635402878353,793.2617190135373,65.55628962692455,23.343847079656587
1.3500750041668983,0.256563014791638,0.959684637295892,-9.17851550411414,0.008976539995549732,-0.29579906253573734,-0.09459969265763009,791.2642319018812,16.551544305072564,72.52295484528905
35.09194955275293,0.8789702309321548,-0.13743841735435966,-9.182184211846057,0.002930575097562682,0.26891644850348667,0.11239045604711079,771.6794268925369,63.64238111778806,-10.827609558017917
171.41952330685038,0.8114768381909452,-0.015383222450624182,-9.158258990842036,0.0018708549467100564,-0.27375301358549825,0.1957242154712765,750.6087401127319,60.14578508914273,0.5954315873315732
123.8168787154842,0.21837085597509215,-0.6849278555688771,-9.195159249968889,0.01473658710691861,-0.2274859739626397,-0.19173288975362512,768.5045555267976,14.903656682631533,-48.71992266996927
47.06261458969943,0.8445202700329523,0.3360218073210647,-9.18959649234296,-0.047551791540148935,0.17684558973426642,0.19448278633493538,810.758424687139,63.21343688650625,25.910898208855006
134.05744763597977,0.590024828862611,0.318731307242721,-9.177489714596073,-0.008497468575385513,0.21246963884471315,0.22506634354446037,819.4043089547968,41.702584582924,26.82180823924928
37.42207900438913,0.8185792809014633,-0.08460240132332342,-9.202329949006295,0.01871746258378806,-0.23527679387977657,0.18233650669959325,782.3097683726228,60.64953480568824,-4.251098525548461
136.28757153175178,-0.5679947712812243,0.5319978294625123,-9.152278431347336,0.023037046898427536,-0.12186094827991907,-0.28539730580512707,822.0994525204261,-45.04911050360826,41.998996136688554
81.78454358575476,0.6552867439806245,-0.4335700596216512,-9.198529859688076,-0.03139007311670348,-0.11588096734493628,-0.2981804313601675,811.8735110874192,48.24508140131401,-34.174383057184606
0.8300461136729819,0.046460147725731475,-0.9791975712852776,-9.164144288154066,0.006175202187136671,-0.25859645661516073,-0.15341528418180805,768.3847529226795,0.4336708573591963,-73.84925588458086
153.70853936329797,0.48023377261539707,0.5068855142996235,-9.175575164850281,0.023519529197137085,0.14713454383386435,-0.25603953470106533,823.734221920199,37.139289763003944,34.47128170275208
9.250513917439859,-0.9510040775527453,-0.12075248464465428,-9.160305880078708,-0.001429113446935288,0.028554566754689724,-0.30672132463295343,746.7075279216247,-69.51923137092443,-6.779090705312011
166.18923273515196,-0.26288893526562185,-0.6744807472471515,-9.139174743043847,-0.04979945163578078,0.190673359563466,-0.21851583998148597,790.9788996644296,-21.44534002522568,-51.97504272376346
179.91999555530865,-0.6384315983477781,-0.03871919952720958,-9.078394325972784,-0.07224485438340977,-0.2544365842179131,0.16092592975128667,747.1328847969647,-43.23594764613831,-5.217050117863362
147.09817212067338,0.7254134557825236,-0.20232180210853024,-9.185717406772834,-0.026746475759976622,0.289804152919228,0.10473700431575195,809.9266920430192,57.27352393763251,-14.348714879975246
98.91549530529474,-0.7960985887348659,-0.01277732172098468,-9.201085382058844,0.04561666334519578,-0.26185802269953184,0.14888583919074014,725.8473163719262,-59.996054216705645,-0.27652450556778674
20.881160064448025,-0.7646233806861513,-0.5841749403092733,-9.121463723984592,-0.03688481286838699,-0.32401156458315317,-0.0016048497514960678,809.2314656497239,-56.30200383690346,-45.1133747029683
53.862992388466026,-0.5075604781055629,-0.7564545832214254,-9.217055868188073,-0.04709930706848212,-0.3005629907521052,-0.03917753215435209,801.3739996005501,-38.74727778768208,-57.74152278586499
13.980776709817212,-0.3545671924651183,0.8413466204300378,-9.157251544229146,-0.03514685569284246,-0.07649715802501784,0.28560505858839574,777.0905790091773,-26.701867072374352,62.36499819756482
129.81721206733707,0.15406600540314225,-0.7313548728784451,-9.177250706394656,0.04649706027483762,-0.2436493473648177,-0.22964406888548028,785.0430343725109,7.221875553563261,-52.438607751322174
123.02683482415691,0.4170888022081013,0.6824261450727828,-9.170868547662078,0.04230254973906371,0.10105256396313775,0.2771826868136248,814.0816458509418,28.405546563985464,50.40669950670832
19.831101727873772,0.07009189179809529,-0.9302819144553331,-9.198378651735041,0.012475610120442559,-0.2477552679133203,-0.1721110370028551,728.128835296847,9.437143174773727,-70.66419273700764
72.014000777821,0.2312841955936838,0.7280084378001562,-9.109407525774213,0.06683402943944883,0.049694789450273946,0.3102573654407417,762.3680009840338,15.611388608562795,55.27395953306387
64.59358853269626,-0.9049113219425703,0.13975029969185565,-9.178085625323842,0.017357043320912646,0.2528534872966528,0.11825900260111419,774.4412527734802,-67.14891830001487,11.0538335716705
77.82432357353187,0.19428703663167,-0.8001505299300463,-9.17590175844052,0.005874674023181222,-0.22921759334483258,-0.15019503338609308,769.5937044410371,12.342648974135408,-56.36817369431264
30.99172176232013,-0.04714063014417497,0.9202826449321804,-9.08750983272687,0.021646208564697306,-0.03909212381106112,0.29003948109756816,759.7281215976357,-6.650016870332395,72.12269617346986
25.361408967164845,0.42269471356991367,0.7723374832740026,-9.228041153736013,0.017200041348573853,-0.29304392362349,-0.046857579827524976,827.7303961591789,26.676642629885833,58.619418941230094
115.57642091227291,-0.7679242108365397,-0.12016467203771665,-9.14098374963966,-0.010213254086550046,0.22959833714301076,0.16648683109072893,801.5211389242476,-61.71531450553162,-8.34232601935591
130.78726595921995,0.6206515900538873,-0.4782950022388937,-9.190353348168474,-0.02081610693414432,-0.11910004149188781,-0.26510045101383684,804.4228233885359,43.50167353163148,-37.86212782546643
112.29623867992666,-0.4941057137343052,0.5865954514930936,-9.219439267291568,-0.023574729498387816,-0.1623377769776585,-0.24285117641537407,835.2740158826995,-37.08314388007491,43.39360739956464
45.482526807044835,0.3204246397078163,-0.8504142249463457,-9.19812982161964,0.016775746210101895,-0.05338024360951414,0.2844911746127556,792.7820584450858,14.451513912060463,-62.36403319865651
129.47719317739876,0.3624325385012984,-0.6842886650412752,-9.182329381735668,0.030956973975236668,-0.11160918302274422,0.28593209611282905,824.1895034006762,25.403593052991056,-51.926038345415456
144.2680148897161,-0.698878744573996,0.2797936362538452,-9.164258729056561,-0.009443239621151683,-0.06998420453638003,-0.2966797578261488,778.9943313745946,-52.32776822268853,23.570568390603423
99.81554530807267,0.1672614001593334,-0.7107581462126886,-9.22688799917259,0.01683936978776369,-0.17556621842670844,-0.2023888762767653,774.0704871191984,9.329641405783079,-53.295693817507704
27.98155453080727,-0.33352980745680366,0.7939948109239875,-9.142668667303669,-0.08658515480723154,-0.06946743964931518,0.2638785396545568,819.4669194442982,-22.28802120655451,61.2593654503031
122.7968220456692,0.5146948816851175,-0.5857913052345889,-9.216890380920557,-0.024107450113098304,-0.18505886791992737,-0.25497197396509436,818.7047143588486,35.039791852625136,-46.04396865283162
59.13328518251014,0.49363774216004613,-0.7677387165874361,-9.141874672419197,-0.003044066367915548,0.2826119949457466,-0.029585869279413934,849.7459160881373,38.239414788170954,-59.11100579972623
139.54775265292517,-0.44685323494023127,-0.524241265197004,-9.203963910597835,0.0160383985715669,0.16884397846577087,0.25313229602798965,824.1410573200365,-35.18039356444329,-40.40173092287892
80.83449080504472,-0.04975921712946358,-0.8490649880243868,-9.15043416944668,0.03280828437240535,-0.2652310784170084,-0.15741207371977167,732.646630583413,-11.07694455157393,-64.80986106845567
42.54236346463693,-0.5748680289726865,-0.6766898540514306,-9.197934438252823,0.00562607669123932,0.16039754893928487,0.2729092941908933,847.3940936489118,-46.97887824300187,-48.84644209858608
173.59964442469027,-0.690439240565621,0.15568546370714118,-9.169296875483074,-0.050264021837514175,0.2853426257298527,0.09068405037247497,787.3609642799123,-52.51230750692081,15.603563599539031
138.7277070948386,0.6729623344269775,0.37767304041726946,-9.198555638285994,-0.01748982809040485,0.05812316162617632,-0.29754522543705136,797.0094159851485,48.75661661339096,26.099815445129913
96.06533696316463,0.704665325191092,0.2833690733499894,-9.175915970407043,-0.004764424979669932,0.21367222875323055,0.23041193023283185,789.8101056092419,57.40932124394283,20.357296721534606
52.822934607478196,0.20206787799084472,-0.8277201782643451,-9.16837515177608,-0.03703407009453578,-0.2511755456804885,-0.15909290013188304,780.1270912924275,13.848363981520146,-61.10075829874073
124.20690038335464,-0.5535240311477393,-0.5593750151687459,-9.205447614544962,0.013151682924736221,0.18106315178915208,-0.2416500302844511,862.6507156727018,-35.65092231006872,-42.334361138284706
133.30740596699818,-0.28674546735007805,0.6527479016815639,-9.169573997876942,-0.06049530574336092,-0.18616812164397964,-0.234876404533974,809.9414785910626,-17.87143527301097,47.41873579801334
124.89693871881772,-0.6721793662122256,-0.23276579819769336,-9.13779579398012,-0.040017515006871014,-0.2684033439243827,0.0724609002022216,798.5518866119821,-45.5608413341446,-16.550853924707205
84.9647202622368,-0.46315510020090167,0.672547724069075,-9.199267982737414,0.003729900012073255,-0.1357153204378037,0.2877145603815216,841.8521007070087,-35.59736491758919,51.3422900307421
168.13934107450413,0.31499396680403013,-0.6510380957277104,-9.174840025355163,-0.002112822258684885,0.29196857638848617,-0.038438976037883425,801.390617324213,24.010716972587588,-49.57961867480964
97.30540585588089,-0.4010371501981677,0.6908419621730222,-9.172152314304862,0.043436059695672866,-0.1951338367932988,-0.22442550148803003,807.8653695432441,-35.26368109430314,52.31700119240434
152.19845546974832,-0.3645924701018562,-0.5717933860867023,-9.177785391804537,0.004105955093427639,0.16867266471559494,-0.21870162811317925,825.778461955958,-27.407632032647648,-43.80881480564107
94.18523251291738,-0.2511908205055867,-0.7394312346119151,-9.192277929876504,-0.010791010772441172,0.22797267161545332,-0.20009338651992348,812.3591363405485,-20.92457613972824,-55.529456126083225
47.1426190343908,0.5004326231436564,-0.7725322913912295,-9.181112327034876,-0.05707354411360902,0.2939009015243326,-0.054869144239625016,808.4955131163154,42.25172766015188,-58.95900496025338
120.22667925995889,-0.6023315499138201,-0.3086196975325797,-9.212846746030863,-0.0003199239829985992,0.1024016052234558,-0.27857018057142513,811.4207296402827,-44.654671065080144,-25.237243221862187
54.21301183399078,-0.7220296104522138,-0.492407017567237,-9.15083442709726,-0.0313391924881245,0.1597364302175594,-0.24540736300208196,802.1511180025443,-53.9572375296814,-36.96419939528372
49.832768487138175,0.026969811406243754,-0.8970371227442259,-9.174994569179216,-0.014702938555789894,-0.2812192831547815,-0.14649962744637948,740.5831610394546,6.74733717509848,-65.26324442003775
115.09639424412468,0.8454398516225983,-0.16170885344376476,-9.158569936280504,0.04096325474530261,0.28735016269186153,0.10355259985292495,789.5406928656314,62.44677977107312,-10.93038875232082
49.93277404300239,-0.7572464672333451,0.3052823139301662,-9.189643601604619,-0.015871749561450238,-0.2236064020567943,0.20529208539399935,774.5185281825343,-56.925240646392794,23.769890136899562
53.492971831768436,0.06503996433012066,-0.8050074228630046,-9.188186808684291,0.003948860621895455,-0.029429334080980637,0.27044143137167465,761.9861803354015,6.7578662602330155,-60.06126229845575
55.84310239457748,-0.10858530504823621,-0.8216664418408843,-9.184385054788349,-0.029909426951872833,-0.2652030270818982,-0.134384651564395,764.1143712035473,-12.235846624193156,-65.95142651710816
164.96916495360853,-0.3220455333463619,0.5546837714391045,-9.191789980036226,-0.03960799324192329,-0.1354942986228787,0.2758235231044122,806.0165309360796,-20.96349490333021,42.384051765158326
104.77582087893772,0.7354035152166443,-0.2738877749321548,-9.202215678712975,0.0179373687813394,-0.07827165280365458,-0.2578717118244608,818.7919822533219,56.688306064749135,-22.43980725469084
86.28479359964443,-0.5950521537017668,0.5024244746629818,-9.181772159080209,0.08260474233464757,-0.11993730011533213,-0.2717534650056103,808.0150845431768,-42.77630342510624,40.85638610376385
108.89604978054336,-0.673201567398116,-0.3766983609675065,-9.20923465710996,-0.002501862444387285,-0.27550431074942894,0.08431003730259036,794.685713204316,-49.72466223754225,-25.94573769131432
75.35418634368577,0.22047680239014658,0.7679225714056293,-9.167540023570687,0.06768207308675188,-0.3055576616753555,-0.08621953805263799,814.2315083204173,15.447517802823953,55.89747900235027
82.71459525529197,0.6200708802440019,0.5002308968633637,-9.20868742054186,0.005298388220956769,0.12041239016204218,-0.2862329264259438,820.2943947226386,50.574336951803495,39.379343586628266
95.98533251847326,-0.2212235655480194,0.8040576669159091,-9.167722585358256,-0.0122591294409012,-0.05825035514016724,0.2984543313119066,780.3021625175588,-14.215869939973182,57.81252053244014
16.980943385743654,-0.26960729567688263,0.8416836154015642,-9.167228444412956,-0.041485280922092325,-0.0765424829888918,0.2713271836420174,803.5781705062307,-23.989864963405385,64.47406596523804
111.12617367631536,0.5199013512685539,-0.5712424242191991,-9.193934028049837,-0.036913457935213764,0.2901178707160685,-0.010751901269521781,816.7528779394714,42.100731968386825,-44.335970626256305
151.82843491305073,0.034137042347317466,-0.6748617886031215,-9.224127013474947,0.035430372906172784,-0.2612664535565193,-0.1624429156174229,726.9162999458168,3.5227766058440135,-47.106812985516186
52.702927940441135,0.5936474795325457,0.6103653629887233,-9.200948696052018,0.01716002787360764,0.171812445148281,-0.25072583552675154,821.59313170741,41.52561450154124,43.85040966015749
44.89249402744597,-0.8037973821071362,-0.42970627018210744,-9.14385786584831,-0.013111822991388062,-0.2935102333185219,0.04570238622277784,802.2380317016629,-60.01647862153523,-29.741926225157723
125.03694649702761,0.40876452482382786,0.5904235708454648,-9.204644194186093,0.011040079478895662,0.14874672668099626,0.2771162865817059,809.9637836850729,26.657636900808775,44.0694246732385
107.27595977554309,-0.8458755487652705,0.3353133356165335,-9.173148333352781,0.06886752272386686,-0.09715877342477099,-0.30350784301363015,812.7869721633944,-67.05084480092698,25.235178911403715
103.4157453191844,0.7039538630636707,-0.0441713803570958,-9.252067341769434,0.03871254823168001,-0.25177965966425325,0.16867784155637433,752.1705701357191,47.41266252040108,-1.1157684086669124
122.02677926551476,0.43171177330793686,0.6322888772100551,-9.179313081387571,-0.036986030913275056,0.07850537217662423,0.2783490604505706,807.0015831372162,32.62884444294777,49.9217289254089
134.59747763764653,-0.7087807804070251,0.2531094706470651,-9.190672677763843,-0.02725007191554105,0.26470200189745985,0.1050413756917978,775.6407633317732,-58.06625319098197,22.667653845086942
129.21717873215178,-0.688635217985895,-0.37543830309172904,-9.209758384927406,-0.02155993743550121,0.11417374233458624,-0.25922827980664853,827.0749849829731,-51.097965662569166,-34.123788534782484
39.80221123395744,0.609470368261898,-0.6898773411267278,-9.209381865642797,0.022227354518667624,-0.15354841741740177,-0.2185112437393911,843.42830010212,46.13448171989973,-50.69029620684823
141.4778598811045,0.2804564540625183,-0.7008190566754776,-9.14826062817731,-0.018223543930865636,-0.06476355799414668,0.2794065446251521,801.1921005842861,20.538054544283103,-49.81320608208864
31.691760653369634,0.3128876348579492,0.841138544637258,-9.147610705818806,0.019309026778655182,0.19502506987028345,-0.22843899240782856,806.4698763895883,26.504665409932112,62.79492120114279
163.8791043946886,-0.5853179577680944,-0.49922295513141873,-9.157036669027962,0.01177784318173278,-0.2914407067320502,0.01780213146352611,859.2267157265911,-39.614679747941295,-37.2210988563185
84.55469748319351,-0.7320960532901544,-0.3500187506935828,-9.138265327152308,0.005723975270934824,0.17045156299026282,0.22462032631636983,808.3281624524162,-50.36682915940378,-30.479196707697383
113.69631646202568,0.3532781604064058,0.6164080949294413,-9.202274966577068,-0.012652249573001718,0.18070381190442067,-0.21950418803058458,819.0446828677626,31.737247410342828,43.04958691862359
122.39679982221234,0.7612665171733752,0.27889463007043,-9.154263721709802,-0.03733050713684583,-0.3156758815743404,0.0848248125152457,794.9552757758338,58.57001398700744,21.23025433035963
62.91349519417746,-0.81610430303308,-0.07618287044575485,-9.2104724434924,0.03428013656239616,-0.2543306909676871,0.1582855973324538,750.2142316675126,-64.56285718399148,-6.012076977639467
26.08144896938719,0.8559734121514058,-0.019665676772718587,-9.192828111664786,0.005429409783009687,0.22724454003789848,0.17413603982381817,720.2650894828323,64.05540293307382,-3.888701458397933
165.44919162175677,0.5483582808071136,-0.33861820110427643,-9.209453514632047,0.0563625377769902,-0.16105820760331335,0.24970159236333628,839.1788210826995,41.14516530034768,-24.643690832714856
138.2676815378632,-0.5801164067018263,0.29041629320720935,-9.15253778797911,0.02172558690795861,-0.059337240835185906,-0.28368681428414966,789.5542514967917,-46.03353434988322,21.707595318868176
84.66470359464415,-0.0362250841354743,0.7989594329056238,-9.203714249200692,-0.013797428054333866,0.22472652553343014,-0.1404110916872098,734.2141342480259,-0.12534886160913628,58.867436347260394
97.98544363575755,-0.1794827282307878,0.7723816708841555,-9.217511389299874,-0.016809722715446382,-0.0630375308870751,0.2788141719200434,799.7791927029376,-15.320377243543014,56.361773105593585
46.60258903272404,-0.798749605124837,0.27662956362267704,-9.19165374671795,-0.009550199212904096,0.3072997834730588,0.100328596043526,816.6733577534433,-59.35079860888038,24.32904382122901
171.9395521973443,-0.582511022862768,0.2313313429587028,-9.197011004136192,-0.017571968811362595,-0.20866004817721318,0.2362288690808052,803.1032935875788,-42.41293907122143,17.904210890558584
22.27123729096061,-0.8540494600478941,0.32965106207249684,-9.15449876935986,-0.011726499309446215,-0.09258471203090589,-0.28434851607142253,778.1068219005207,-63.68873636031545,23.347208347328415
124.94694149674983,-0.6380275674879863,0.36206600912525394,-9.175235430120768,-0.017245674750581162,-0.15836787615532344,0.23053015690629816,819.7187621011423,-51.592198236901325,23.53959947739623
125.3569642757931,0.27006486988130335,0.6436610328981288,-9.203797087723153,0.020394513841027976,-0.29810969448093666,-0.053220974921299416,819.3361681955381,18.318380000988412,46.17698351424385
93.15517528751597,0.10559293979615958,-0.7906205022179245,-9.210685994911605,0.023518302444078962,0.2799718738994375,-0.11179289040061283,791.7212192972042,11.687816579374346,-58.753778526239934
8.750486138118784,0.9728359989953013,-0.03363694526726628,-9.182857725532871,0.04551967183581085,0.04239580400050881,-0.29797315463042434,729.7789336049109,76.24617705082929,-3.164413790396803
121.59675537529863,-0.6999754598598537,0.25503907879992005,-9.155588054904845,0.02881915919424977,0.3018235343157078,0.10324200749859111,791.7817311717365,-52.379609770196986,18.860320781673966
120.90671703983556,-0.7299677219315128,-0.16327557926374794,-9.177233509527758,-0.06101527090123548,-0.2439252914568889,0.12629528695398493,765.1144477614176,-56.35135999040497,-11.966076295749488
55.6230901716762,-0.5919582402922297,0.5045158087275652,-9.243941205578809,0.03483882707908746,0.2856676780792026,0.0025881459992758153,806.1875125277213,-44.27127084556881,36.68696383122545
142.29790543919108,-0.38569431891396205,0.5752096939083209,-9.214284949883439,-0.0021897601167030537,-0.1812049870882287,-0.24391139916830332,818.790657819801,-29.838644903741695,42.15884042503458
129.53719651091728,-0.44178599661473233,-0.5532652287040244,-9.1966940048784,0.01670831981226765,0.09367453416234482,0.2719485453488521,847.6099457229611,-31.091483052421466,-41.689498884266946
87.64486915939774,-0.29776551888984304,0.735270563801325,-9.137547637942374,0.012662241175079787,0.26978874473274433,-0.07532143473276501,785.4868793396055,-17.956023768588253,53.603419133996866
100.89560531140619,-0.7559850152279212,-0.24151262437514434,-9.188228836452492,-0.020578306288073393,-0.26903674195511457,0.10280280892828401,799.7228913944925,-60.43531653315193,-16.46632347548733
147.39818878826603,0.6509248316232333,0.16243559624321066,-9.196235977964093,0.01567388401983015,-0.2661169668965844,0.09707231485809925,798.9497638659835,51.61877736070525,13.125771958212892
109.50608367131508,-0.026021409808039526,-0.8001211393306694,-9.117263665720733,-0.013804836997340307,-0.0036864872303124037,0.2942795770522617,770.5273907882531,-6.287933963827189,-61.79887049757815
23.23129062725707,-0.8234720830447609,-0.3209657125623002,-9.189498725993815,-0.0273404592100935,0.044895280130496866,-0.2917126207523563,795.617895261419,-61.523341530056,-24.329060115388806
2.730151675093061,0.888122068582962,0.26709013981163254,-9.226270921573798,0.038391119740642875,0.09683125193386727,-0.28577574157473135,799.2745623071512,67.58909567959307,17.23100661449591
147.68820490027224,0.2840903150442201,0.6331351529744328,-9.170564499663639,0.015578982979119227,0.2063213351508505,-0.19569089252722868,785.9680648451903,21.813608854593035,46.09116673489166
30.211678426579255,-0.7382346499444339,-0.6041203350000197,-9.165257790238014,0.01356507364830706,0.14041428542911558,-0.26247212738962994,830.316118696656,-55.86326329764615,-45.83133076184495
75.5541974554142,-0.6877649711248538,-0.4169909140348047,-9.159180702781812,-0.014583555107519023,0.20370039736013404,0.23485701014587834,821.7315510140421,-56.29158609418681,-27.90354896478335
119.57664314684149,-0.8214296408789087,-0.07792281128072162,-9.226582906542014,-0.01077346690661358,0.2779373213101087,0.1852735034504459,763.3722149974982,-65.32223340124996,-8.55626843798943
175.08972720706706,0.7942946387606293,-0.08642834449608564,-9.19716238628268,-0.03127834885632799,0.26031183094649085,0.12566411901002558,773.6891534893408,56.9788643163735,-5.520579548613793
151.4484138007667,0.5478708197096435,-0.3938502659173175,-9.118445478235836,-0.026265089444846068,-0.17506097700695158,0.2626041697188586,792.946835667404,40.18795047018448,-29.638604459879726
177.09983887993778,0.7344524602692876,-0.2134502847528029,-9.219074925087945,0.006201119454270742,0.2623648752115308,0.12716057958068308,792.7270803155974,61.490478445943,-13.87368757366363
63.95355297516529,-0.7337521627649365,0.5681780333495803,-9.142922557802622,0.025096691082717826,-0.15559470457056795,0.22020977681811238,826.0581125057746,-56.858106102754085,40.117016172326544
10.470581698983278,0.5712888724361121,-0.756434751607289,-9.189711746199011,-0.019063079618394867,-0.10855635519553,0.2829996209854543,820.9394587305715,37.10291330457782,-58.07893412033401
146.29812767375967,-0.4460651599684115,0.5749630324966516,-9.158242035103896,-0.010076454537539258,-0.1580297032122018,-0.2456589032642092,842.8725989172947,-37.85948397690004,41.28520296517592
59.373298516584256,0.6231497569693462,0.5394271933102557,-9.212988290815707,0.01950114964870561,-0.273362789965938,-0.0027572641811476365,813.8471348103265,46.53069763760576,42.93290805721074
56.123117950997276,0.63618827549232,-0.6040699642909715,-9.221609075243688,0.011416529206679023,0.28875516478537866,-0.010803701781189997,844.5010306371137,48.16956441565782,-46.82428558088315
178.70992832935164,0.406493601072806,0.5759727413859977,-9.198434659424645,-0.054873860897047926,0.14494172319978005,-0.27793957629444904,828.1208315906061,32.44324292521962,42.02336105541121
63.93355186399245,-0.896081407453996,0.28383461245656416,-9.139237699880558,0.030148926308615855,-0.2118024410816024,0.17820098584107566,796.3157551360288,-65.62066811034698,22.065117989931654
2.5701427857103174,-0.9430595018650177,-0.1645976194814603,-9.146524322180305,0.008497483973710607,0.24140119380255798,0.1908900075519868,796.5694942991045,-65.92041694796778,-14.372955673336037
114.72637368742708,0.7041751791017403,0.3232919377488739,-9.205612346970469,0.002245547048327455,0.08889866664876525,-0.2741482116359219,811.3160823991675,54.54409413963776,19.51747661949503
177.2498472137341,-0.6825934528390415,0.008470486713030922,-9.19100157423074,-0.07805679794290507,-0.02019622090717311,-0.29875582662557765,735.694430019765,-54.335192308855646,-2.195850136009857
167.329296072004,-0.12980939744731906,0.6727237228658431,-9.182655785497682,0.016305626396165823,-0.24894631068281642,-0.13881273607283462,747.4245014933272,-6.54529498398165,48.94696422528428
135.557530973943,-0.6740718708771042,-0.4319452924698993,-9.136798990620187,0.030768173138138,0.20462979775019083,0.21663117449323288,813.4892284888641,-53.05602819105856,-34.137272106532755
7.940441135618646,-0.8534288030919335,0.4730766862313915,-9.170135680413491,0.009325898365667397,-0.20022898307181697,0.22100652512193786,808.8273672345557,-65.0508266368943,36.928633159963255
37.4520806711484,0.6328020320102068,-0.5592261026355594,-9.18478155801566,0.026581259799292673,-0.14963088539225014,0.24417170391458246,811.5371094321489,44.77348405621389,-42.64855961232944
106.87593755208623,-0.5903032839561515,-0.6294097028712707,-9.19356431201955,0.0013307630008656034,-0.30964995712641386,0.022983463165104846,818.5671453550826,-46.849723131720815,-49.214502810823156
100.62559031057282,-0.5542724399427043,0.5634633405111987,-9.184175137978766,0.026238066744033332,0.29771762359428383,-0.00403929981430959,808.9280119221381,-42.098715000664576,41.658589904340374
162.7190399466637,0.5505114887068571,0.37009440550523504,-9.135369443038496,0.004466040188089237,0.10557795688293309,-0.274684158414225,813.5288607916302,40.17841550547689,29.93378353713095
28.021556753152954,0.34286678469349635,0.7757119623279993,-9.16774327967403,-0.053858609043552844,0.07615210795369046,0.27032769166813114,802.115105508168,22.626164822053855,57.41748621169834
110.56614256347575,-0.7692578825951908,-0.2383145496429641,-9.240451430950921,-0.008236666351347089,0.2452839895537054,0.21694029420258593,793.4471746683507,-58.84370966634836,-18.644884049535083
47.54264125784766,-0.6614815972259154,-0.6198150513582295,-9.192752767108525,-0.03347866512368117,0.16331818496512565,0.28142663903950177,812.745018262943,-50.400573119758064,-45.9255701405377
96.4753597422079,0.409339034093452,-0.7992821348816217,-9.102332700918371,-0.045691960017743345,-0.10703842982360152,0.2488089304953858,829.8557168479471,33.73961231453069,-60.37538037721533
113.17628757153176,-0.14122650530953412,-0.7471678771646607,-9.21537544343961,0.046232198803194034,0.23116691403284062,-0.19307496828155976,764.6597535468882,-11.886483849264867,-56.79777678128022
92.12511806211457,0.5712997342553319,-0.5093508223181479,-9.182686258060695,-0.009786064640112559,0.3002005238483693,0.014675638418608463,834.6659594098259,39.779197919396985,-40.27467227201745
29.371631757319854,0.5975646327966242,0.6978186696840732,-9.20921066223193,0.020849676014245925,-0.32964489105821915,0.0024685329754296015,841.5524888285133,49.29170990084269,54.9311892430255
146.99816656480917,-0.04346260275897722,0.6921859579048124,-9.193839355481467,-0.05008543836187424,0.019653687854402746,0.29787849201176564,726.5676500526828,-2.681637317596094,55.54308171229541
148.16823156842048,-0.03136754261141901,-0.6447218037361945,-9.201575540219626,0.013453238446330706,0.2710411926841424,-0.18232219779545147,754.2593950927013,-5.797805985330662,-50.739130940588815
21.9412189566087,-0.8196371926482381,0.38070752658782436,-9.168278449959896,0.0124408837712592,-0.20604690368846196,0.22183591242129025,831.874102082411,-62.00392614180375,27.454922474098595
179.26995944219124,-0.6548672766978701,0.21875155137553265,-9.13138418013191,-0.012266803002049635,-0.09154549230777217,-0.28964191425094393,803.8695984141756,-52.64239056374673,20.351345384027017
150.72837379854437,0.6671895821116909,0.29847585192587234,-9.163629746730077,0.011168308119715281,0.08510814087542311,-0.29136341206730465,806.5827587675551,47.36584532550764,21.871564424340754
30.421690093894107,0.891515383384065,-0.11720184625425346,-9.161770693936143,0.05966677618887222,-0.2667662525461422,0.15993375004095428,769.453715612379,69.50311232911187,-6.577663991336372
127.4470803933552,0.689253250658471,-0.43994491932589463,-9.173423630243867,-0.06137209989379135,-0.17103611142318992,0.22033415278605212,815.0729676171297,46.25887853412159,-33.626521666599615
10.430579476637591,0.9787733910985834,-0.22463963052825636,-9.179408913195205,-0.007813588420987333,-0.23951359894366675,0.18980086811691485,782.1570222843197,68.67356982802043,-17.81841329175735
153.47852658481028,0.2566085966599839,-0.6711943309384849,-9.207816496823995,-0.039982596775162,-0.06891175385214748,0.2888719441895904,772.0271092630817,22.96770188275135,-50.164565865123826
102.28568253791877,-0.6548854442426664,0.4429492078018555,-9.14579842699546,0.04021369582268015,-0.12908057889456312,-0.2699675569415958,836.0918479803464,-50.103391670720555,34.14489109645425
136.68759375520864,0.4315492767393898,0.6233723814889465,-9.188367461840398,0.03084852769158531,0.21639635291521778,-0.2114052773446904,813.195339930612,38.128600111768186,48.564597405408854
124.12689593866327,0.5150782994103588,-0.5300173111514475,-9.22426553874449,0.04613950490908203,0.33047697930899383,-0.033531970854381754,849.9622391555721,37.0952739423548,-38.965847467766
140.1177843213512,0.5815302998333834,-0.5745575182481618,-9.122326977545915,-0.0054635314670468905,0.28052694527300226,0.030679827549709517,817.879180873515,42.74816696888817,-46.086927203138
62.53347408189344,-0.5010943356716937,-0.6599126443750218,-9.163007781990254,-0.0020033728868787933,0.11268947924964931,0.2737874491223389,777.7953483905611,-37.407420887068135,-52.90659922989667
144.47802655703094,0.2952146795551527,-0.6877697308425328,-9.16978516637828,-0.0193868560871073,-0.07788415002073808,0.29407387161296,842.2569266921155,18.642228531588824,-50.60664021727203
160.54891938441025,-0.5870487471370165,-0.44754282584397714,-9.188488943430043,-0.02836541560704311,0.18872096890384943,0.26264263475033167,825.2102278995383,-44.70861624240598,-33.421082331823335
154.3785765875882,0.5707788924267284,0.4162655863708622,-9.115476341316638,0.009860099971926,-0.28111523373893965,0.009036485553468171,840.5463630210305,42.72317843223492,33.668906419191245
18.80104450247236,0.5141448266434222,-0.7249063599572276,-9.112989237285513,-0.07389731935630946,-0.16130125055116298,-0.22665924611297242,803.6874381069763,38.65089214741311,-53.01478307034903
79.47441524529141,0.3970415306603401,-0.7715969087402323,-9.101199706317106,-0.017874075843137636,-0.0781866529273732,0.26475885566787566,778.7185102739063,28.43726256187652,-57.98293844639618
44.382465692538474,0.6683392818768655,0.5574979802993896,-9.171244682962264,-0.005617667688050626,-0.31477852091373504,0.01648229110787291,827.8213219048865,52.52351126130405,39.58908931796157
155.42863492416245,0.5801397301346166,-0.12984591703185272,-9.190173751919263,0.038719160328285505,-0.23207071623959524,0.1974680929444972,763.071196691238,47.52190230511478,-8.122873668440324
17.750986165898105,0.8467987486568873,-0.011447798924806959,-9.20620789979089,-0.0047145011990878645,-0.019218487242417006,-0.3327088887175199,747.8352162070236,65.0320990890418,0.6893166787343663
142.45791432857382,0.5670027566571005,-0.5268648882068462,-9.11200637022278,-0.06122350975895476,-0.13231144164704017,0.25808279075355917,829.0654607276992,42.39562904984425,-38.054639362384805
147.8982165675871,-0.6617796924131989,-0.238775456613857,-9.162227126882566,-0.04863934971696392,-0.276680057852119,0.050972133389495355,783.98105953318,-51.67286504529209,-17.279739463710058
73.59408856047558,-0.7186463590455882,0.05775280993571031,-9.188389155160774,-0.018541647192312903,0.27484312450553805,0.11284267698765202,760.2100848309168,-53.68098319964789,7.003004020150938
96.21534529696095,-0.6112943255380557,-0.4593174855537913,-9.164526119319946,0.0038809478976192862,0.12042763090865818,-0.2727698216265525,823.3829872092002,-45.02888738791184,-33.03062548443902
78.28434913050725,-0.6259046981296994,0.41841093838651927,-9.163221206384716,0.001412916478248052,-0.1015639006413523,-0.2996359441137683,820.1589785226959,-51.18216758041407,35.87206816650696
160.57892105116952,-0.6912598906290306,-0.062261522797155244,-9.176178921716126,-0.015074107797209397,0.26065326737885214,0.16602961694731763,754.4339349862186,-48.3538341024528,-2.8359129509327765
123.89688316017556,-0.6611409687394084,-0.29738254240473877,-9.183344015027712,-0.01932395212425721,-0.28988279253504196,0.0794180472371018,795.5578918610775,-52.87136204707127,-22.37598380069039
120.51669537196511,-0.14390004623088562,-0.7905511510891814,-9.161622464779496,0.0023624356205889287,0.0695932231926038,0.2822006871346137,779.1620371211094,-9.635276558300372,-58.42963478932459
174.58969942774598,-0.7464110477042444,0.1059812316785727,-9.15023928513571,0.019256528651203697,0.2740543253133741,0.10062440524401627,755.1684952379611,-59.761869548185004,2.0004154821638327
159.75887549308297,0.75417461513189,-0.14970797271053896,-9.195283868859558,-0.031690547937917944,-0.04923353747635581,-0.2771898739875636,743.208942156414,59.65737719556607,-15.20049951064431
1.9901105616978723,-0.18412870654325186,0.934187796078135,-9.198582583753032,-0.0006579968279039922,-0.05061926535589757,0.3204546259107847,783.6054567284805,-13.501383811958059,72.13389040268268
57.46319239957776,0.4549928393478859,-0.6147669025695962,-9.221628831523416,0.04502372958702556,-0.14583448971585,0.2778749720511661,835.1444855925138,32.63632286841537,-46.20019946035992
5.540307794877493,-0.6234568251606266,-0.6237475456110685,-9.15523682859637,0.027369758451818656,0.1292821777895242,0.25687725562294245,831.8606428390489,-50.03823015212302,-47.338139999044145
48.36268681593422,0.4196844481400879,0.7595823579961536,-9.20877631267437,0.007405832368829373,-0.29491830794846546,-0.05462340134346343,806.6418454253073,30.811868406710364,56.137785348896074
3.4501916773154067,0.6932424434974604,-0.5449529088144155,-9.176382246193628,0.019689619306195165,-0.1901568067290036,0.2316087460465461,803.2532636300438,51.00081590026239,-40.02730187194993
83.48463803544642,0.24809329131565674,-0.7687788148286063,-9.177326993658786,0.052364091057080814,-0.05938371101189058,0.28726696611766,779.8738775571373,10.89449309074418,-56.73713429734101
110.0761153397411,0.7644148929493831,0.13428192618568724,-9.113491993279835,0.006393041588648381,0.2614380445834856,0.18935663573942108,761.4537247033039,59.59363217387232,9.001715697842513
22.3612422912384,0.44579180140093716,0.7326764561423929,-9.169687868657737,-0.013999399437284366,-0.28181970357268166,-0.051988231533589946,820.6587985776629,37.478695252662554,57.310935476454574
95.125284738041,0.550651419623488,-0.5196074935541064,-9.2259758146112,0.0013211052832206342,0.3307573602715991,-0.013212970420019076,819.5025768021352,37.98703383595126,-38.928591535923594
138.97772098449914,-0.32144066006675714,0.6440784417701231,-9.164297731659317,-0.021560712208290988,-0.09901706927662646,0.30386379343004655,804.0791141858112,-19.46315275167116,51.83650153292295
21.541196733151843,-0.6634396382000225,-0.6740062539371049,-9.115641048747547,-0.0015576023272630935,0.16165616263733,0.2878850861465691,823.5443002546448,-50.17387221076054,-49.198590672725814
114.8763820212234,-0.6362557051291863,-0.5571870750932921,-9.169648698021184,0.00505526206789727,-0.3022892394565918,-0.031377430500739,843.4276532835654,-49.82865887763662,-41.21891940434043
94.44524695816435,0.6076922794127637,-0.3722729753758972,-9.142251647015902,0.020468870946045114,-0.18253133336563748,0.232091602621027,808.3849478748375,50.591577662873306,-28.39316604386093
36.92205122506806,-0.7486406916408066,0.09088297810009707,-9.157525459680652,0.00747585271390154,-0.23261588138039913,0.1783202518713549,763.9293179754773,-52.01234142206968,12.462587321102912
104.2557919884438,-0.7559602197849897,0.04288987789732537,-9.181722492509202,-0.02701202495780992,-0.02752613681307737,-0.3077629694426552,758.1167317127806,-53.30407534682298,-0.6727300248234949
8.31046169231624,-0.4552804515113873,0.7819843765836706,-9.149169054765963,-0.025008958797258816,-0.20643589738261023,-0.22181915340451624,798.1939160362783,-34.71964557905688,57.32669215420594
142.7379298849936,0.6886139164078161,0.1860088913644038,-9.16455048209362,-0.023788464975257044,0.04837820987038169,-0.2818241533963487,766.0351637245544,58.265972073611664,14.974508465660277
171.62953497416524,-0.414024903386993,0.5030589988656866,-9.170356314207313,0.020489614691579925,0.2834786405877933,-0.01583319816426593,818.9915943781149,-31.464230919385557,34.63699105234392
121.47674870826157,0.3081344928390921,-0.7098903649443833,-9.135974533705532,0.010847135472544287,-0.09627454915711332,0.3095847430157642,807.5827487186717,26.0442270394656,-53.7652905089038
69.77387632646258,0.7941063701449657,-0.3343547968530069,-9.137835621275011,-0.0032510497235133423,-0.10436415646113838,-0.2854905104199299,792.6414571425715,56.5508516673238,-25.488042337156852
117.17650980610034,-0.1548355347076328,-0.8009141625315959,-9.230193473332,-0.0613452678164677,0.24012747725476427,-0.17795175151456422,766.1322893624949,-14.21570342660335,-60.32237064833517
24.53136285349186,-0.529625141851438,-0.7744991161648611,-9.175569912560077,-0.0170970069185105,0.13395089507507527,0.28175916424941533,823.248213105301,-39.560065367511086,-56.03286773308043
71.07394855269737,0.7248061257334396,0.11801589813826135,-9.124820737308998,-0.012560896121946455,0.23699162833354662,0.1771222282233611,779.400326839587,57.08359402329628,9.508735853984305
79.0043891327296,-0.029792555019965042,0.7793370722117218,-9.221982481501328,0.04876223559886963,0.017875846173180256,0.27756293905531276,743.3595927936537,3.76544622182186,57.09626439227179
3.6002000111117285,-0.8754839367017293,0.40875160075065714,-9.166443599857677,-0.02089829405613282,0.28054177052946394,0.08048686832172028,756.9156878289043,-66.89577631405382,30.924960255989827
47.21262292349575,-0.6207910339822279,-0.5586103595569893,-9.185354977967043,-0.004364896959858358,0.1507155907354895,-0.251250461961869,800.5254681104857,-42.535114647613156,-43.98653240455692
139.06772598477693,0.5879149677120541,0.24564665723193985,-9.126711801498518,0.00040285825240260736,0.21126199661151882,0.19880845728501548,819.0000793902531,41.884360246151935,19.5721284051273
57.603200177787656,-0.822665427871658,0.24284786382220938,-9.167424647546577,-0.10450158292113593,0.2918800838341379,0.06503252157114388,790.2841229602168,-62.774441474088576,20.27894864690701
58.43324629146064,0.7292778879803555,-0.29359804602029893,-9.206546015909632,0.03461081449290688,-0.20152712826628305,0.20374740400444297,786.7265670153643,50.62105563603974,-19.731051903774887
132.49736096449803,0.001181429543677304,-0.7112219191989174,-9.191478649953904,0.0014046844510144786,0.001332658048381697,0.29330252562310394,747.5732898098329,-2.746175388306188,-52.01886038607971
60.84338018778821,-0.1398953492196415,-0.8583663580648054,-9.143377256303664,-0.00523301041964415,-0.2777550440694345,-0.1169711945473618,799.4884121986654,-6.116369784349477,-63.06279840608311
165.70920606700372,0.5553456243761812,0.537047195382324,-9.16083071913143,-0.033993804206282764,0.14459801438547376,-0.2455992911632976,817.8786166630481,34.48940586365485,42.772775655763674
90.20501138952164,-0.5356494569080911,-0.5812193856555412,-9.159135428301314,0.018006769307028502,0.16665478176514964,-0.2621844458182885,813.0468157933767,-36.33200277422018,-44.55826561906305
162.4290238346575,0.6990193158796483,-0.17900196592504672,-9.157900570177162,0.015804294699729115,-0.25944538009623475,0.1889005600649433,775.2605016202082,48.67713797042448,-14.644221562900848
55.03305739207734,0.44556712007786836,0.707067372134066,-9.19619044837303,0.03123485359297073,0.11425897205016165,0.2683845402782412,840.4911152996135,31.62025227009218,54.290197955688946
174.52969609422746,-0.3519729919371769,-0.5668144160176757,-9.153360139067525,0.05542503190536011,0.11260843639671365,0.24432584753120828,828.6120505306744,-27.37856239747638,-43.47479576739914
72.02400133340741,0.373737537204134,0.6776434807678525,-9.105062779739773,0.060801899867338964,0.08869768217471029,0.30330970194996143,800.7614043305266,25.25772528636009,48.84785774323418
130.83726873715207,-0.03429770291740913,-0.7205560397255792,-9.187063294642819,-0.0014888150663052392,-0.23900175660275144,-0.12719980787677915,713.3629522318373,2.174993855190612,-56.08159313377961
128.3771320628924,0.5142149367416305,0.5155623768484888,-9.127662592336334,0.036218846522298224,-0.30265069696532615,-0.005757635600057685,837.8876400937061,38.79561916521855,39.462014486728165
42.882382354575256,-0.6521811629062926,-0.541779312105776,-9.187645182284086,-0.005245664860531242,-0.27390762705726324,0.05283237909579641,827.1573774992722,-49.75335001454441,-41.52560594508128
120.64670259458859,-0.27037076294140827,0.7922980888545723,-9.170292514459698,0.0459547052824274,0.2725832812228899,-0.07858923324680056,790.1822476973834,-20.919650896961045,60.02905563141727
47.052614034113006,0.7603077639502366,0.4905814034345486,-9.189353149909499,-0.04184057696442491,0.14393746841530314,0.21705128586609235,812.3889759456226,63.05444773953207,36.36807679338332
65.60364464692483,-0.6673812469410936,0.37398232956289224,-9.238453129598481,0.013149348448819497,0.2783993053939634,0.06558375078739104,794.0689527777155,-47.79532754068549,30.8531209670339
49.85276959831102,-0.2607690522440378,-0.8383547203632461,-9.186611729837727,-0.033114417024490826,-0.30763312393781755,-0.08090174908229027,791.0840370888169,-20.36742146616344,-64.14940049750417
179.55997555419745,-0.5954867539878509,-0.24912293679420947,-9.094828320058834,-0.020075064367599725,0.2150998220696481,0.2165836952790075,793.6993118955511,-47.58465590785598,-18.25240834134384
31.081726762597924,0.8372288395287336,0.04555921015821428,-9.087836455624315,0.04794511687422992,0.23487512754440648,0.13963503848893094,757.7927750194847,63.642662289365575,4.178760346401788
42.01233401855659,0.03814685660068223,0.8282373991347995,-9.125627743443605,-0.02693239152049355,0.032091084532247884,0.29436339432201947,767.2322259329958,0.10191690317179836,58.98959931220548
152.43846880382245,0.7226611758629649,-0.2038319043385088,-9.189445074219172,0.004995617484838315,-0.20807407661162367,0.21205036794434767,789.4941425953914,48.138451188056266,-18.905258543130472
119.88666037002056,-0.573313327745267,-0.36498182869802653,-9.210174952036924,-0.02417461138175628,-0.2929480279727259,0.03957489218337792,818.120777597838,-39.594320894245705,-27.155096416443964
81.26451469526086,-0.7437523498150015,0.1430657230693123,-9.177468026515125,0.015046946731577436,-0.043212408252975704,-0.2832315771399788,743.7439812038631,-57.2714932281515,11.939425468896786
72.00400022223457,0.0828568819383634,0.7510160389524082,-9.113880278129644,0.07191652639677017,0.01051763636809779,0.312710095978176,759.7636487967975,6.938083828224281,57.139776991162776
15.080837824323574,0.9019128447916042,-0.007032530441923512,-9.180282493283338,-0.087631566373582,0.28036798021735776,0.15592813575957065,769.0214564101294,67.73584909211118,-0.3732713524799788
28.721595644202456,0.6872026946667205,0.4944827536484809,-9.165905141922485,-0.04608078501805806,0.10220941461469421,-0.2828033653966771,799.1500407627495,49.75282744987443,36.006346507615376
102.68570476137563,0.31544527915961396,0.7255652538072362,-9.20170899963462,0.03132248685313946,0.21813517513296657,-0.1970846815735352,768.2313005164816,27.427703217101026,54.67526145231016
81.98455469748319,-0.18028316527528254,0.7427248400252466,-9.187486188999044,0.020341462068721797,-0.033032990350054046,0.31317031214249175,788.8302580605291,-17.80229287467997,56.778221641371715
41.24229123840213,-0.8879047037570287,-0.0856651108104873,-9.174265797029678,-0.014534288572574468,0.06383057307924499,-0.29289467696381233,756.6948303710803,-65.91967336247576,-5.908108253114237
34.381910106117004,0.7509590052009274,0.5654475712119189,-9.140239426435489,0.0584048447339015,-0.3044689422445243,0.016770663714669128,821.378770669432,62.6863649778324,42.517950083270364
103.8357686538141,-0.000754041345582308,-0.7219760527167675,-9.192400350332505,-0.06401632166078973,-0.26954594516686603,-0.1488437032744665,734.0217158612523,2.1734557049468215,-52.874055287952395
135.25751430635034,-0.6539098495856405,0.07036354035079351,-9.17383399106486,-0.00865194385965808,-0.029104326678010124,-0.2860138107859013,742.4266651271439,-51.17231309065947,10.243323230297285
123.61686760375576,-0.5516251277025915,0.45964666426085143,-9.15033155274931,-0.034980947346294006,0.34452412898568313,0.016065508893878557,831.5316802441746,-43.32852599100059,35.64531292010406
42.93238513250736,-0.8906956053987409,0.21220417183742263,-9.162643792377384,0.026211303094007734,-0.1905450332604791,0.2258938090887924,766.3759964654087,-63.26838015918581,14.130623360759987
155.27862659036614,-0.6116343640484929,0.35264599654400874,-9.157752172237485,0.01911050337773488,-0.09084087759950765,-0.2858404365263009,814.5910547503781,-44.08315217879989,28.623199717056472
133.3674093005167,0.4380647545875034,0.5777276613143538,-9.121148822945436,-0.02022288260380562,-0.30104410254343744,-0.025845075237195536,821.0742171424208,36.68138714162829,41.78100911395699
27.341518973276294,0.24185193341834219,0.9546790384502657,-9.129347929244785,0.011999336322713296,-0.24693063798581585,-0.0954368521088663,769.7816264996782,19.73171340764905,72.56661405455199
87.4348574920829,0.7833008175104236,-0.3152070961960182,-9.169100879955526,-0.03030306393714666,-0.21442526842006654,0.1920589994574876,790.7867838545181,59.805151903808266,-24.964684533002508
142.5879215511973,-0.6125191525432903,0.030538395848515573,-9.200097195154381,-0.00582037458071015,0.24059007848779435,0.13745032853256342,720.9700134115905,-46.26272879125886,7.008080327034275
17.110950608367133,0.8053827948209741,-0.4445191242169748,-9.152494905089993,0.011892109305094037,0.27623973627427745,0.03849883144089697,812.0603519876603,59.75709454931508,-32.288999950992796
156.71870659481084,0.5187601684513484,0.28028370545407627,-9.163987147230396,-0.03911460575795726,0.12292252407244225,-0.24482620212631995,828.0650629436415,38.73160067158464,22.707650476042996
150.07833768542696,0.7071299189955477,0.06553026558948165,-9.097108795676384,0.008642180598292701,0.2581738288251263,0.1727746528324433,752.16506302215,50.80768419212715,7.8244844779776574
67.24373576309796,-0.8218750189760325,-0.0952216592572574,-9.185508232309584,-0.04594575881746619,0.047025963003246324,-0.2791301715343892,716.0806306851755,-61.93928267016575,-6.60123590112714
40.35224179121062,0.23613221719430783,0.8711220162651874,-9.225930279820533,-0.06483677460036297,-0.25966775097696326,-0.0735655896151706,786.642891734835,18.222215753674764,65.43730109253593
110.19612200677815,-0.39545492872657534,-0.7443845781083119,-9.169023177555337,-0.013161943724019057,0.17510850309149958,-0.2230346844436646,838.3272636129429,-26.691269420501015,-56.22764582776953
154.5185843657981,-0.1520125297123501,-0.7260429460299996,-9.179224305687974,-0.020051146533457544,0.08632162270240255,0.30342400354768967,764.2135185402601,-5.388539030356971,-51.69056239963072
79.58442135674204,-0.7342000554926698,0.013169831567853292,-9.184087310630172,-0.0007137319626683576,0.2788299476807493,0.11872875837608758,737.3070816215496,-53.196563393487416,-2.5349722549554574
133.5974220790044,-0.7662347932344119,0.21752386213258226,-9.200245255072726,-0.01088947020376092,0.266539978245693,0.10993449713406159,758.8211408966989,-54.569757197221456,13.961421773727748
121.10672815156398,0.7259220168974081,-0.29364976407488663,-9.150214879617055,0.011813016289249039,0.2947660004895537,0.06038964849626496,798.9964178768461,55.24273802987926,-19.363568649187485
49.78276570920607,0.636797235599407,-0.4927270277214762,-9.148297385365174,0.020434599133494637,-0.1407472815435119,-0.2715654819598116,851.39249934089,49.877504253167956,-31.69684031548369
12.540696705372522,-0.6464238502689297,-0.6835393362969497,-9.194305143617646,-0.05366604844772804,0.14315754740622447,0.2503749718709773,818.9318902804932,-48.236129079010276,-51.331464372463984
116.02644591366187,0.28504797280675076,0.6319870380381271,-9.16774085446735,-0.041480227990665926,0.07826887914460096,0.26542790764012364,786.8233180734543,18.400522611329166,48.31093947447638
87.96488693816323,-0.5510859148706195,0.656708243598569,-9.166503734946097,0.027490085122589502,-0.1430887861505988,0.28741047052618146,799.5871326924693,-45.52835555594825,53.04828505826937
63.923551308406026,-0.9300340650299594,0.12790871702635723,-9.138226600201447,0.03545000684491608,-0.23550861911497342,0.15187540510897707,747.4837318315807,-69.46298843977998,9.506525401001456
172.15956442024557,0.20487698372022692,-0.7131439689953647,-9.171773116078356,0.06934933931613262,0.2769976466611103,-0.14693479272219834,757.9551783377086,18.41113867569112,-52.268742529735405
21.221178954386357,-0.7662563201739593,-0.3810952076064837,-9.144921418949977,0.03575457627102689,0.11620845262690088,-0.27331660115664885,813.2079504994456,-59.27747740057164,-30.999435158365948
26.731485082504584,0.7806428025271795,0.3541113784703358,-9.189834067513642,-0.01783054094485733,0.066023681214983,-0.30725589441435863,798.5156347148472,58.36799300264722,30.694817277174515
107.8359908883827,-0.06267754476875097,-0.7443266684672407,-9.200546375208878,0.05835897406998914,-0.2650353816121345,-0.14350055054366154,735.681699027581,-3.302746461625797,-58.07229177465003
39.53219623312406,-0.4779373728010944,-0.7610968720580615,-9.137899620369561,-0.01041792847408804,0.11189284014694666,0.2951278902259393,826.8166815267989,-36.956799382746254,-54.00821021282482
15.160842269014946,0.1326497528255181,-0.9592087032502656,-9.19996502847418,-0.02021652760743456,0.2753530869274557,-0.12821554246879538,765.2553125412845,5.474650057539729,-72.04560865202505
132.82737929884993,0.04413995384401941,-0.766014476199763,-9.141471558801328,-0.02816242151753323,-0.2458139217018004,-0.17908244486059907,731.6856773618413,0.00975456202211733,-57.77147348504375
109.28607144841381,-0.6506441300123104,0.48329051572571363,-9.17152266644626,0.010496194074410154,-0.1501977735517906,-0.30132870618659713,782.7316003049782,-52.216804358277386,36.54937148318755
86.10478359908885,0.6970658794776563,-0.2850877927950325,-9.159331439299228,-0.07372566534534285,0.29184413785466234,0.09579873558909575,794.4920390576933,48.88574775691135,-22.74470834132285
153.82854603033502,0.058898306684579814,-0.7142411628716048,-9.163892804511866,-0.03104153460263676,-0.24297018564227724,-0.1477203565717612,745.8881263916501,-2.6149431416436757,-52.453984513436446
99.65553641868993,-0.13781810399123276,0.7269402076502135,-9.105280209224357,-0.018057234573223706,0.2626789708857482,-0.08986600866514755,783.169029347043,-7.379057153051635,56.517849224248735
3.3701872326240347,0.5647342730850364,0.7646290073286378,-9.16442082205326,0.02059533098886386,-0.28891136639339166,-0.012341129782935816,844.5615327500237,45.40715793512394,56.498983444994266
126.4670259458859,0.4981837924744844,-0.5447043415745296,-9.151171578812123,0.006678441222140923,-0.12627038227650642,0.2480799634924205,822.0912428807233,40.723517988678715,-39.3338358110354
23.441302294571923,0.808198539787629,-0.4007424506416971,-9.196793726658454,0.011905058967642162,-0.20010798067018737,0.24240543335006381,807.4449925820911,57.36668813826017,-26.40434813936582
40.04222456803156,0.5574437069897166,0.6121615581113742,-9.170965555238409,0.018039190204692863,0.17008626811108415,0.2682918244280013,841.2942917211733,43.0126514244503,43.50944481831926
137.87765986999278,-0.5673114353497006,-0.48435250258262813,-9.222429622573834,0.0059327609713919595,-0.2708038441573705,0.028205887645002044,850.8624496092134,-40.86924940759892,-34.730683249552584
97.61542307905995,-0.6886234966801055,0.5014440782965133,-9.206030587070458,-0.01481724412870041,0.30775935220722883,0.01885500349074329,782.9492272304515,-49.04247859630143,41.33408108020599
150.89838324351354,-0.7605129416341796,-0.24685227049866235,-9.16906109220863,-0.034971073274128565,-0.2862421385885106,0.07052449723731459,769.5102409701666,-55.69503876132148,-15.79685462070046
128.96716484249126,-0.46845625931910556,0.6216082891649903,-9.164925323878283,-0.010650478340765632,-0.10976314208999402,0.2835036201651772,822.7427320532266,-32.01571653918402,48.08002076936997
154.0485582532363,0.5970100218629621,0.3964951962693518,-9.149978311960165,-0.01697066325146429,0.1638238566369778,0.2590387932610489,812.3910351612373,46.28535126919794,31.072309490119913
129.70720595588645,0.5452776707543313,0.5899297269480817,-9.119945124716406,-0.004548512423820038,0.13566358920700405,-0.24645333835182132,824.8447018956989,39.68134659231165,41.30162206390385
